Trial,V1,Participant,Congruity,Reaction_time,Response,Correctness,Order_number,Finger_Screen
0,0,AD,Yes,-43.1864649710711,lalt,1,Middle,Middle
1,1,AD,No,-1.2800925054471,lalt,1,Index,Middle
2,2,AD,No,0.519336670381023,lalt,1,Middle,Index
3,3,AD,Yes,0.413999434653675,lcmd,1,Index,Index
4,4,AD,No,0.471183138294151,lalt,1,Middle,Index
5,5,AD,No,0.450146212184336,lcmd,1,Index,Middle
6,6,AD,Yes,0.536160830955509,lalt,1,Middle,Middle
7,7,AD,Yes,0.447952965984598,lcmd,1,Index,Index
8,8,AD,No,0.627908918506023,lcmd,1,Index,Middle
9,9,AD,Yes,0.579137889412209,lalt,1,Middle,Middle
10,10,AD,No,1.14827373387527,lalt,1,Middle,Index
11,11,AD,Yes,0.558197550207865,lcmd,1,Index,Index
12,12,AD,Yes,0.614634596090752,lcmd,1,Index,Index
13,13,AD,No,0.519288917153631,lcmd,1,Index,Middle
14,14,AD,Yes,0.472147170477569,lalt,1,Middle,Middle
15,15,AD,No,0.498577296524331,lalt,1,Middle,Index
16,16,AD,Yes,0.632344460487388,lalt,1,Middle,Middle
17,17,AD,No,0.405511294945597,lalt,1,Middle,Index
18,18,AD,No,0.476186803495523,lcmd,1,Index,Middle
19,19,AD,Yes,0.541773242014472,lcmd,1,Index,Index
20,20,AD,Yes,0.423150988074497,lalt,1,Middle,Middle
21,21,AD,No,0.384381347254362,lalt,1,Middle,Index
22,22,AD,Yes,0.44737074371659,lcmd,1,Index,Index
23,23,AD,No,0.569715158082545,lcmd,1,Index,Middle
24,24,AD,No,0.456001819134713,lcmd,1,Index,Middle
25,25,AD,Yes,0.629428163263924,lalt,1,Middle,Middle
26,26,AD,No,0.468425712350268,lalt,1,Middle,Index
27,27,AD,Yes,0.4906466921326,lcmd,1,Index,Index
28,28,AD,Yes,0.519319924327988,lalt,1,Middle,Middle
29,29,AD,No,0.579364447202522,lalt,1,Middle,Index
30,30,AD,Yes,0.584891183348361,lcmd,1,Index,Index
31,31,AD,No,0.529165682441089,lcmd,1,Index,Middle
32,32,AD,No,0.459668663528305,lcmd,1,Index,Middle
33,33,AD,Yes,0.568001713184628,lalt,1,Middle,Middle
34,34,AD,No,0.587290189857583,lalt,1,Middle,Index
35,35,AD,Yes,0.473872661706991,lcmd,1,Index,Index
36,36,AD,Yes,0.845522466138959,lalt,1,Index,Index
37,37,AD,Yes,0.600253197771963,lalt,1,Middle,Middle
38,38,AD,No,0.582685026561364,lcmd,1,Index,Middle
39,39,AD,No,0.645112404064264,lalt,1,Middle,Index
40,40,AD,No,0.598077886085946,lalt,1,Middle,Index
41,41,AD,Yes,0.456294766906638,lcmd,1,Index,Index
42,42,AD,No,0.490009478037223,lcmd,1,Index,Middle
43,43,AD,Yes,0.500706421479094,lalt,1,Middle,Middle
44,44,AD,No,0.522101334924798,lcmd,1,Index,Middle
45,45,AD,Yes,0.451015602168638,lcmd,1,Index,Index
46,46,AD,No,0.552100638067373,lalt,1,Middle,Index
47,47,AD,Yes,0.498197053163324,lalt,1,Middle,Middle
48,48,AD,No,0.56832772096385,lalt,1,Middle,Index
49,49,AD,Yes,0.545412050269078,lcmd,1,Index,Index
50,50,AD,Yes,0.76492589627162,lalt,1,Middle,Middle
51,51,AD,No,0.599816071940609,lcmd,1,Index,Middle
52,52,AD,No,0.490200869098771,lcmd,1,Index,Middle
53,53,AD,Yes,0.467209138954047,lalt,1,Middle,Middle
54,54,AD,No,0.473846192122437,lalt,1,Middle,Index
55,55,AD,Yes,0.451300231006485,lcmd,1,Index,Index
56,56,AD,Yes,0.510006204387196,lalt,1,Middle,Middle
57,57,AD,No,0.600198638159782,lalt,1,Middle,Index
58,58,AD,Yes,0.400197125610418,lcmd,1,Index,Index
59,59,AD,No,0.449990906112362,lcmd,1,Index,Middle
60,60,AD,Yes,0.406449451774847,lalt,1,Middle,Middle
61,61,AD,Yes,0.435468895058136,lcmd,1,Index,Index
62,62,AD,No,0.400053811806742,lalt,1,Middle,Index
63,63,AD,No,0.511571365676332,lcmd,1,Index,Middle
64,64,AD,Yes,0.493195818830259,lcmd,1,Index,Index
65,65,AD,No,0.510748486511886,lcmd,1,Index,Middle
66,66,AD,No,0.550477675872401,lalt,1,Middle,Index
67,67,AD,Yes,0.560089151374996,lalt,1,Middle,Middle
68,68,AD,Yes,0.409211847523693,lcmd,1,Index,Index
69,69,AD,No,0.569317088334344,lalt,1,Middle,Index
70,70,AD,Yes,0.400204526283801,lalt,1,Middle,Middle
71,71,AD,No,0.456885470240366,lcmd,1,Index,Middle
72,72,AD,Yes,0.403863969945803,lcmd,1,Index,Index
73,73,AD,No,0.427460502530437,lalt,1,Middle,Index
74,74,AD,No,0.447765680414136,lcmd,1,Index,Middle
75,75,AD,Yes,0.391985295631457,lalt,1,Middle,Middle
76,76,AD,Yes,0.357532786019135,lalt,1,Middle,Middle
77,77,AD,No,0.406468952784792,lcmd,1,Index,Middle
78,78,AD,Yes,0.495218741474673,lcmd,1,Index,Index
79,79,AD,No,0.438408204610482,lalt,1,Middle,Index
80,80,AD,Yes,0.445058546634414,lalt,1,Middle,Middle
81,81,AD,No,0.424400891445089,lcmd,1,Index,Middle
82,82,AD,Yes,0.345269924984336,lalt,1,Index,Index
83,83,AD,No,0.419867304072227,lalt,1,Middle,Index
84,84,AD,No,0.441131112119137,lalt,1,Middle,Index
85,85,AD,Yes,0.610552341665652,lcmd,1,Index,Index
86,86,AD,Yes,0.486427822336509,lalt,1,Middle,Middle
87,87,AD,No,0.568534615670842,lcmd,1,Index,Middle
88,88,AD,Yes,0.609006573376291,lcmd,1,Index,Index
89,89,AD,No,0.519362761813682,lalt,1,Middle,Index
90,90,AD,No,0.584261477936479,lcmd,1,Index,Middle
91,91,AD,Yes,0.509272619464923,lalt,1,Middle,Middle
92,92,AD,No,0.535725595708982,lcmd,1,Index,Middle
93,93,AD,Yes,0.48014529924842,lalt,1,Middle,Middle
94,94,AD,Yes,0.521283965732437,lcmd,1,Index,Index
95,95,AD,No,0.57828664996191,lalt,1,Middle,Index
96,96,AD,Yes,0.53927181453912,lalt,1,Middle,Middle
97,97,AD,Yes,0.503767977270741,lcmd,1,Index,Index
98,98,AD,No,0.516588157659839,lcmd,1,Index,Middle
99,99,AD,No,0.466641934111294,lalt,1,Middle,Index
100,100,AD,Yes,0.433200075570539,lalt,1,Middle,Middle
101,101,AD,No,0.445175228780158,lalt,1,Middle,Index
102,102,AD,No,0.573788823373661,lcmd,1,Index,Middle
103,103,AD,Yes,0.443632755614772,lcmd,1,Index,Index
104,104,AD,Yes,0.46424870771591,lalt,1,Middle,Middle
105,105,AD,No,0.48749486977465,lalt,1,Middle,Index
106,106,AD,Yes,0.661835710227024,lcmd,1,Index,Index
107,107,AD,No,0.527141895482828,lcmd,1,Index,Middle
108,108,AD,No,0.571822405164085,lalt,1,Middle,Index
109,109,AD,Yes,0.515898274537221,lalt,1,Middle,Middle
110,110,AD,No,0.550124550389569,lcmd,1,Index,Middle
111,111,AD,Yes,0.555355799768563,lcmd,1,Index,Index
112,112,AD,Yes,0.526072525244672,lcmd,1,Index,Index
113,113,AD,Yes,0.568495127430651,lalt,1,Middle,Middle
114,114,AD,No,0.521100677526533,lcmd,1,Index,Middle
115,115,AD,No,0.422442630154592,lalt,1,Middle,Index
116,116,AD,No,0.458762000035449,lcmd,1,Index,Middle
117,117,AD,Yes,0.466641015734012,lcmd,1,Index,Index
118,118,AD,No,0.454019249044336,lalt,1,Middle,Index
119,119,AD,Yes,0.423336923169018,lalt,1,Middle,Middle
0,0,cam,Yes,-14.5287361145,lalt,0,Middle,Middle
1,1,cam,No,0.98966794014,lalt,1,Index,Middle
2,2,cam,No,0.547359848022,lcmd,1,Middle,Index
3,3,cam,Yes,0.970695972443,lalt,1,Index,Index
4,4,cam,Yes,0.740157985687,lcmd,1,Middle,Middle
5,5,cam,Yes,0.647042942047,lalt,1,Index,Index
6,6,cam,No,0.853317070007,lalt,1,Index,Middle
7,7,cam,No,0.598774051666,lcmd,1,Middle,Index
8,8,cam,No,0.669231176376,lalt,1,Index,Middle
9,9,cam,Yes,0.849858140945,lalt,1,Index,Index
10,10,cam,No,0.625411987305,lcmd,1,Middle,Index
11,11,cam,Yes,0.497505092621,lcmd,1,Middle,Middle
12,12,cam,Yes,0.72941403389,lalt,1,Index,Index
13,13,cam,No,0.883054828644,lalt,1,Index,Middle
14,14,cam,No,0.540287160873,lcmd,1,Middle,Index
15,15,cam,Yes,0.790562152863,lcmd,1,Middle,Middle
16,16,cam,Yes,0.637947034836,lalt,1,Index,Index
17,17,cam,No,0.539016103745,lcmd,1,Middle,Index
18,18,cam,No,0.540011835098,lalt,1,Index,Middle
19,19,cam,Yes,0.385270118713,lcmd,1,Middle,Middle
20,20,cam,No,0.594306898117,lalt,1,Index,Middle
21,21,cam,Yes,0.735632991791,lalt,1,Index,Index
22,22,cam,Yes,0.490358018875,lcmd,1,Middle,Middle
23,23,cam,No,0.56801199913,lcmd,1,Middle,Index
24,24,cam,No,0.773898839951,lalt,1,Index,Middle
25,25,cam,Yes,0.43614897728,lcmd,1,Middle,Middle
26,26,cam,Yes,0.618728923798,lalt,1,Index,Index
27,27,cam,No,0.483415079117,lcmd,1,Middle,Index
28,28,cam,Yes,0.628926849365,lcmd,1,Middle,Middle
29,29,cam,No,0.868446922302,lcmd,1,Middle,Index
30,30,cam,Yes,0.689308023453,lalt,1,Index,Index
31,31,cam,No,0.636588954926,lcmd,0,Index,Middle
32,32,cam,Yes,0.935344839096,lalt,1,Index,Index
33,33,cam,No,0.812906122208,lalt,1,Index,Middle
34,34,cam,No,0.784865999222,lcmd,1,Middle,Index
35,35,cam,Yes,1.07708492279,lcmd,1,Middle,Middle
36,36,cam,No,1.13236198425,lcmd,1,Middle,Index
37,37,cam,No,0.954190826416,lalt,1,Index,Middle
38,38,cam,Yes,0.610712194443,lcmd,1,Middle,Middle
39,39,cam,Yes,0.742769145966,lalt,1,Index,Index
40,40,cam,Yes,0.662047815323,lcmd,1,Middle,Middle
41,41,cam,No,1.29072089195,lcmd,1,Middle,Index
42,42,cam,Yes,0.542625999451,lalt,1,Index,Index
43,43,cam,No,0.995591974258,lalt,1,Index,Middle
44,44,cam,Yes,0.794178915024,lcmd,1,Middle,Middle
45,45,cam,No,0.661618852615,lcmd,1,Middle,Index
46,46,cam,Yes,0.6373878479,lalt,1,Index,Index
47,47,cam,No,0.770426845551,lalt,1,Index,Middle
48,48,cam,Yes,0.984927988052,lcmd,1,Middle,Middle
49,49,cam,Yes,0.67625207901,lalt,1,Index,Index
50,50,cam,No,1.23133482933,lalt,1,Index,Middle
51,51,cam,No,0.574009895325,lcmd,1,Middle,Index
52,52,cam,No,1.31406292915,lalt,1,Index,Middle
53,53,cam,No,0.579102945328,lcmd,1,Middle,Index
54,54,cam,Yes,0.521298074722,lalt,1,Index,Index
55,55,cam,Yes,0.685981035233,lcmd,1,Middle,Middle
56,56,cam,No,0.556790113449,lcmd,1,Middle,Index
57,57,cam,Yes,0.47926492691,lcmd,1,Middle,Middle
58,58,cam,No,0.786883115768,lalt,1,Index,Middle
59,59,cam,Yes,0.565567922592,lalt,1,Index,Index
60,60,cam,Yes,0.552433919907,lcmd,1,Middle,Middle
61,61,cam,Yes,0.696159076691,lalt,1,Index,Index
62,62,cam,No,0.914791059494,lalt,1,Index,Middle
63,63,cam,No,0.590189027786,lcmd,1,Middle,Index
64,64,cam,Yes,0.458675050735,lcmd,1,Middle,Middle
65,65,cam,No,0.596024894714,lcmd,1,Middle,Index
66,66,cam,No,0.742032051086,lalt,1,Index,Middle
67,67,cam,Yes,0.638506126404,lalt,1,Index,Index
68,68,cam,No,0.664972019196,lalt,1,Index,Middle
69,69,cam,No,0.629518079758,lcmd,1,Middle,Index
70,70,cam,Yes,0.485327863693,lcmd,1,Middle,Middle
71,71,cam,Yes,0.513717031479,lalt,1,Index,Index
72,72,cam,Yes,0.438706970215,lcmd,1,Middle,Middle
73,73,cam,Yes,0.74727897644,lalt,1,Index,Index
74,74,cam,No,0.815298175812,lalt,1,Index,Middle
75,75,cam,No,0.700818920135,lcmd,1,Middle,Index
76,76,cam,Yes,0.582996988296,lcmd,1,Middle,Middle
77,77,cam,No,0.861602878571,lalt,1,Index,Middle
78,78,cam,No,0.669771003723,lcmd,1,Middle,Index
79,79,cam,Yes,0.723444890976,lalt,1,Index,Index
80,80,cam,Yes,0.546709156036,lcmd,1,Middle,Middle
81,81,cam,No,0.756645011902,lalt,1,Index,Middle
82,82,cam,Yes,0.616940832138,lalt,1,Index,Index
83,83,cam,No,0.424340963364,lcmd,1,Middle,Index
84,84,cam,Yes,0.501872873306,lcmd,1,Middle,Middle
85,85,cam,No,1.09749617577,lalt,1,Index,Middle
86,86,cam,No,0.636236095428,lcmd,1,Middle,Index
87,87,cam,Yes,0.692491817474,lalt,1,Index,Index
88,88,cam,No,0.66323800087,lcmd,1,Middle,Index
89,89,cam,Yes,0.518544864655,lcmd,1,Middle,Middle
90,90,cam,No,0.758476114273,lalt,1,Index,Middle
91,91,cam,Yes,0.789688873291,lalt,1,Index,Index
92,92,cam,No,0.702190876007,lalt,1,Index,Middle
93,93,cam,Yes,0.474037981033,lalt,1,Index,Index
94,94,cam,No,0.720656871796,lcmd,1,Middle,Index
95,95,cam,Yes,0.49486489296,lcmd,1,Middle,Middle
96,96,cam,No,0.49601893425,lcmd,1,Middle,Index
97,97,cam,No,0.695649003983,lalt,1,Index,Middle
98,98,cam,Yes,0.757475996017,lalt,1,Index,Index
99,99,cam,Yes,0.527943086624,lcmd,1,Middle,Middle
100,100,cam,No,0.661118125916,lcmd,1,Middle,Index
101,101,cam,No,0.870919179916,lalt,1,Index,Middle
102,102,cam,Yes,0.586040878296,lcmd,1,Middle,Middle
103,103,cam,Yes,0.561438941956,lalt,1,Index,Index
104,104,cam,Yes,0.557745075226,lalt,1,Index,Index
105,105,cam,Yes,0.530904054642,lcmd,1,Middle,Middle
106,106,cam,No,0.453754091263,lcmd,1,Middle,Index
107,107,cam,No,0.720921945572,lalt,1,Index,Middle
108,108,cam,No,0.611279058456,lcmd,1,Middle,Index
109,109,cam,Yes,0.745660066605,lalt,1,Index,Index
110,110,cam,No,0.436700105667,lalt,1,Index,Middle
111,111,cam,Yes,0.47962603569,lcmd,1,Middle,Middle
112,112,cam,Yes,0.457068157196,lcmd,1,Middle,Middle
113,113,cam,Yes,0.740098905563,lalt,1,Index,Index
114,114,cam,No,0.68605504036,lcmd,1,Middle,Index
115,115,cam,No,0.62204914093,lalt,1,Index,Middle
116,116,cam,No,0.613116121292,lcmd,1,Middle,Index
117,117,cam,Yes,0.516989994049,lalt,1,Index,Index
118,118,cam,No,0.594532108307,lalt,1,Index,Middle
119,119,cam,Yes,0.505417203903,lcmd,1,Middle,Middle
0,0,Camilla H,No,-30.9708550453,lcmd,1,Middle,Index
1,1,Camilla H,No,1.22659101486,lalt,1,Index,Middle
2,2,Camilla H,Yes,0.499889850616,lcmd,1,Middle,Middle
3,3,Camilla H,Yes,0.576260900497,lalt,1,Index,Index
4,4,Camilla H,Yes,0.789942979813,lcmd,1,Middle,Middle
5,5,Camilla H,No,1.01004095078,lcmd,1,Middle,Index
6,6,Camilla H,Yes,0.872863960266,lalt,1,Index,Index
7,7,Camilla H,No,0.602026081085,lalt,1,Index,Middle
8,8,Camilla H,No,0.923203086853,lcmd,0,Index,Middle
9,9,Camilla H,Yes,0.834756946564,lcmd,1,Middle,Middle
10,10,Camilla H,No,0.778746128082,lcmd,1,Middle,Index
11,11,Camilla H,Yes,0.639123868942,lalt,1,Index,Index
12,12,Camilla H,No,1.01857295036,lalt,1,Index,Middle
13,13,Camilla H,Yes,0.7030128479,lalt,1,Index,Index
14,14,Camilla H,No,0.709632015228,lcmd,1,Middle,Index
15,15,Camilla H,Yes,0.815007972717,lcmd,1,Middle,Middle
16,16,Camilla H,No,0.594555902481,lalt,1,Index,Middle
17,17,Camilla H,No,0.886652994156,lcmd,1,Middle,Index
18,18,Camilla H,Yes,0.747241830826,lalt,1,Index,Index
19,19,Camilla H,Yes,0.605449819565,lcmd,1,Middle,Middle
20,20,Camilla H,Yes,0.788891792297,lalt,1,Index,Index
21,21,Camilla H,No,0.658514928818,lalt,1,Index,Middle
22,22,Camilla H,Yes,0.461301994324,lcmd,1,Middle,Middle
23,23,Camilla H,No,0.813046836853,lcmd,1,Middle,Index
24,24,Camilla H,Yes,0.916589784622,lalt,1,Index,Index
25,25,Camilla H,No,1.07659096718,lcmd,1,Middle,Index
26,26,Camilla H,Yes,0.616806077957,lcmd,1,Middle,Middle
27,27,Camilla H,No,0.791920995712,lalt,1,Index,Middle
28,28,Camilla H,Yes,0.887326955795,lcmd,1,Middle,Middle
29,29,Camilla H,Yes,0.666829776764,lalt,1,Index,Index
30,30,Camilla H,No,0.64112405777,lalt,1,Index,Middle
31,31,Camilla H,No,-1.81158685684,lalt,0,Middle,Index
32,32,Camilla H,Yes,0.892856025696,lcmd,1,Middle,Middle
33,33,Camilla H,Yes,0.651762199402,lalt,1,Index,Index
34,34,Camilla H,No,0.712118911743,lalt,1,Index,Middle
35,35,Camilla H,No,1.1083129406,lcmd,1,Middle,Index
36,36,Camilla H,No,0.627577972412,lalt,1,Index,Middle
37,37,Camilla H,Yes,0.602282047272,lalt,1,Index,Index
38,38,Camilla H,Yes,-2.02434287071,lalt,0,Middle,Middle
39,39,Camilla H,No,1.23824300766,lcmd,1,Middle,Index
40,40,Camilla H,Yes,0.626923942566,lalt,1,Index,Index
41,41,Camilla H,Yes,0.573722934723,lcmd,1,Middle,Middle
42,42,Camilla H,No,0.962952136993,lalt,1,Index,Middle
43,43,Camilla H,No,1.21403698921,lcmd,1,Middle,Index
44,44,Camilla H,Yes,0.659859991074,lcmd,1,Middle,Middle
45,45,Camilla H,Yes,0.647422027588,lalt,1,Index,Index
46,46,Camilla H,No,0.710334968567,lcmd,1,Middle,Index
47,47,Camilla H,No,-2.2861790657,lcmd,0,Index,Middle
48,48,Camilla H,No,0.723180103302,lalt,1,Index,Middle
49,49,Camilla H,No,0.72108707428,lcmd,1,Middle,Index
50,50,Camilla H,Yes,0.621598911285,lalt,1,Index,Index
51,51,Camilla H,Yes,0.516098165512,lcmd,1,Middle,Middle
52,52,Camilla H,No,0.681095933914,lalt,1,Index,Middle
53,53,Camilla H,Yes,0.607807016373,lcmd,1,Middle,Middle
54,54,Camilla H,No,0.536656045914,lcmd,1,Middle,Index
55,55,Camilla H,Yes,0.679922056198,lalt,1,Index,Index
56,56,Camilla H,Yes,0.579310035706,lcmd,1,Middle,Middle
57,57,Camilla H,Yes,0.627583122253,lalt,1,Index,Index
58,58,Camilla H,No,0.884940004349,lcmd,1,Middle,Index
59,59,Camilla H,No,0.6253490448,lalt,1,Index,Middle
60,60,Camilla H,No,0.563149166107,lalt,1,Index,Middle
61,61,Camilla H,No,0.663882923126,lcmd,1,Middle,Index
62,62,Camilla H,Yes,0.483028030396,lalt,1,Index,Index
63,63,Camilla H,Yes,0.652494049072,lcmd,1,Middle,Middle
64,64,Camilla H,Yes,0.573641872406,lalt,1,Index,Index
65,65,Camilla H,Yes,0.575399971008,lcmd,1,Middle,Middle
66,66,Camilla H,No,0.53238286972,lalt,1,Index,Middle
67,67,Camilla H,No,1.17448401451,lcmd,1,Middle,Index
68,68,Camilla H,No,1.37387080193,lalt,1,Index,Middle
69,69,Camilla H,Yes,1.00100588799,lcmd,1,Middle,Middle
70,70,Camilla H,Yes,0.703888893127,lalt,1,Index,Index
71,71,Camilla H,No,0.836938905716,lcmd,1,Middle,Index
72,72,Camilla H,Yes,0.748312997818,lcmd,1,Middle,Middle
73,73,Camilla H,Yes,0.740783882141,lalt,1,Index,Index
74,74,Camilla H,No,1.4381529808,lalt,1,Index,Middle
75,75,Camilla H,No,0.825265026093,lcmd,1,Middle,Index
76,76,Camilla H,No,0.904578018188,lcmd,1,Middle,Index
77,77,Camilla H,Yes,0.667761898041,lcmd,1,Middle,Middle
78,78,Camilla H,Yes,0.734987020493,lalt,1,Index,Index
79,79,Camilla H,No,1.4957429409,lalt,1,Index,Middle
80,80,Camilla H,No,0.704536056519,lcmd,1,Middle,Index
81,81,Camilla H,Yes,1.23254499435,lcmd,1,Middle,Middle
82,82,Camilla H,Yes,0.973333072662,lalt,1,Index,Index
83,83,Camilla H,No,0.665655088425,lalt,1,Index,Middle
84,84,Camilla H,No,0.534479999542,lcmd,1,Middle,Index
85,85,Camilla H,Yes,0.613566970825,lcmd,1,Middle,Middle
86,86,Camilla H,Yes,1.31450691223,lalt,1,Index,Index
87,87,Camilla H,No,0.909163951874,lalt,1,Index,Middle
88,88,Camilla H,No,1.90751094818,lalt,1,Index,Middle
89,89,Camilla H,Yes,0.579768037796,lalt,1,Index,Index
90,90,Camilla H,No,0.676513957977,lcmd,1,Middle,Index
91,91,Camilla H,Yes,1.33063192368,lcmd,1,Middle,Middle
92,92,Camilla H,No,0.564748001099,lalt,1,Index,Middle
93,93,Camilla H,Yes,0.742124128342,lcmd,1,Middle,Middle
94,94,Camilla H,No,0.630545139313,lcmd,1,Middle,Index
95,95,Camilla H,Yes,0.624129867554,lalt,1,Index,Index
96,96,Camilla H,No,0.81440911293,lalt,1,Index,Middle
97,97,Camilla H,Yes,0.717456102371,lcmd,1,Middle,Middle
98,98,Camilla H,No,1.92183680534,lcmd,1,Middle,Index
99,99,Camilla H,Yes,0.623826122284,lalt,1,Index,Index
100,100,Camilla H,Yes,0.838201951981,lcmd,1,Middle,Middle
101,101,Camilla H,No,1.28093795776,lalt,1,Index,Middle
102,102,Camilla H,No,2.05216498375,lcmd,1,Middle,Index
103,103,Camilla H,Yes,0.749649047852,lalt,1,Index,Index
104,104,Camilla H,Yes,0.742067050934,lalt,1,Index,Index
105,105,Camilla H,No,0.666180181503,lalt,1,Index,Middle
106,106,Camilla H,No,0.558281898499,lcmd,1,Middle,Index
107,107,Camilla H,Yes,0.690921020508,lcmd,1,Middle,Middle
108,108,Camilla H,Yes,0.54090719223,lalt,1,Index,Index
109,109,Camilla H,Yes,1.00802307129,lcmd,1,Middle,Middle
110,110,Camilla H,No,0.424070882797,lcmd,1,Middle,Index
111,111,Camilla H,No,0.525843954086,lalt,1,Index,Middle
112,112,Camilla H,No,0.612221813202,lcmd,1,Middle,Index
113,113,Camilla H,No,1.11391806602,lalt,1,Index,Middle
114,114,Camilla H,Yes,0.452442932129,lalt,1,Index,Index
115,115,Camilla H,Yes,0.735268974304,lcmd,1,Middle,Middle
116,116,Camilla H,No,0.699324989319,lalt,1,Index,Middle
117,117,Camilla H,Yes,0.65302400589,lalt,1,Index,Index
118,118,Camilla H,No,0.537335205078,lcmd,1,Middle,Index
119,119,Camilla H,Yes,0.480606079102,lcmd,1,Middle,Middle
0,0,camille,Yes,-12.1576780319214,lalt,1,Index,Index
1,1,camille,No,0.972617053985573,lcmd,1,Middle,Index
2,2,camille,No,2.09747395515444,lalt,1,Index,Middle
3,3,camille,Yes,1.18865489959717,lcmd,1,Middle,Middle
4,4,camille,No,1.53571791648864,lalt,0,Middle,Index
5,5,camille,Yes,1.06619997024535,lcmd,1,Middle,Middle
6,6,camille,No,0.727700805664085,lalt,1,Index,Middle
7,7,camille,Yes,1.02639598846434,lalt,1,Index,Index
8,8,camille,Yes,0.830312061309826,lcmd,1,Middle,Middle
9,9,camille,Yes,0.697875165939308,lalt,1,Index,Index
10,10,camille,No,1.30261979103091,lcmd,1,Middle,Index
11,11,camille,No,1.12840290069579,lalt,1,Index,Middle
12,12,camille,No,1.11144394874572,lcmd,1,Middle,Index
13,13,camille,Yes,0.857619857788109,lcmd,1,Middle,Middle
14,14,camille,Yes,0.643970060348522,lalt,1,Index,Index
15,15,camille,No,0.659733009338368,lalt,1,Index,Middle
16,16,camille,No,0.574625921249378,lalt,1,Index,Middle
17,17,camille,Yes,0.809846973419212,lalt,1,Index,Index
18,18,camille,No,0.769413948059082,lcmd,1,Middle,Index
19,19,camille,Yes,0.641134023666382,lcmd,1,Middle,Middle
20,20,camille,Yes,0.711134004592907,lcmd,1,Middle,Middle
21,21,camille,No,0.8350830078125,lalt,1,Index,Middle
22,22,camille,Yes,0.516714000701882,lalt,1,Index,Index
23,23,camille,No,0.940863037109352,lcmd,1,Middle,Index
24,24,camille,No,0.554903984069824,lcmd,1,Middle,Index
25,25,camille,Yes,0.547676038742054,lcmd,1,Middle,Middle
26,26,camille,No,0.782882928848267,lalt,1,Index,Middle
27,27,camille,Yes,0.629011917114269,lalt,1,Index,Index
28,28,camille,No,0.492695140838634,lalt,1,Index,Middle
29,29,camille,Yes,0.628907060623192,lcmd,1,Middle,Middle
30,30,camille,Yes,0.825866174697865,lalt,1,Index,Index
31,31,camille,No,0.599362230300926,lcmd,1,Middle,Index
32,32,camille,Yes,0.506339883804344,lalt,1,Index,Index
33,33,camille,No,0.611155080795299,lcmd,1,Middle,Index
34,34,camille,No,0.536875915527332,lalt,1,Index,Middle
35,35,camille,Yes,0.477636098861694,lcmd,1,Middle,Middle
36,36,camille,Yes,0.464461994171131,lalt,1,Index,Index
37,37,camille,No,1.05123996734619,lalt,1,Index,Middle
38,38,camille,No,0.624862957000744,lcmd,1,Middle,Index
39,39,camille,Yes,1.50581192970276,lcmd,1,Middle,Middle
40,40,camille,Yes,0.716184806823719,lalt,1,Index,Index
41,41,camille,No,0.717841100692738,lcmd,1,Middle,Index
42,42,camille,No,0.632579135894787,lalt,1,Index,Middle
43,43,camille,Yes,0.643132877349899,lcmd,1,Middle,Middle
44,44,camille,Yes,0.642798852920578,lcmd,1,Middle,Middle
45,45,camille,No,0.607991933822632,lcmd,1,Middle,Index
46,46,camille,Yes,0.781466913223312,lalt,1,Index,Index
47,47,camille,No,0.87196288108828,lalt,1,Index,Middle
48,48,camille,Yes,0.46900591850283,lcmd,1,Middle,Middle
49,49,camille,Yes,0.580699014663651,lalt,1,Index,Index
50,50,camille,No,0.634896993637085,lcmd,1,Middle,Index
51,51,camille,No,0.783580017089889,lalt,1,Index,Middle
52,52,camille,No,0.737853050231934,lalt,1,Index,Middle
53,53,camille,No,0.814254856109642,lcmd,1,Middle,Index
54,54,camille,Yes,0.611223125457741,lcmd,1,Middle,Middle
55,55,camille,Yes,0.629689884185836,lalt,1,Index,Index
56,56,camille,Yes,0.656811189651535,lalt,1,Index,Index
57,57,camille,Yes,0.769196939468429,lcmd,1,Middle,Middle
58,58,camille,No,0.720776796340942,lcmd,1,Middle,Index
59,59,camille,No,0.900109148025535,lalt,1,Index,Middle
60,60,camille,No,0.607635068893387,lalt,1,Index,Middle
61,61,camille,Yes,0.453803157806419,lalt,1,Index,Index
62,62,camille,Yes,0.745783185958885,lcmd,1,Middle,Middle
63,63,camille,No,0.619623041152977,lcmd,1,Middle,Index
64,64,camille,No,0.511163997650101,lcmd,1,Middle,Index
65,65,camille,Yes,0.531584978103638,lcmd,1,Middle,Middle
66,66,camille,Yes,0.654535961151169,lalt,1,Index,Index
67,67,camille,No,0.843323135375954,lcmd,0,Index,Middle
68,68,camille,Yes,0.669051837921188,lcmd,1,Middle,Middle
69,69,camille,No,0.675941038131668,lcmd,1,Middle,Index
70,70,camille,Yes,0.525253963470504,lalt,1,Index,Index
71,71,camille,No,0.597222995758102,lalt,1,Index,Middle
72,72,camille,Yes,0.590957117080734,lalt,1,Index,Index
73,73,camille,Yes,0.560046052932762,lcmd,1,Middle,Middle
74,74,camille,No,0.737917089462258,lalt,1,Index,Middle
75,75,camille,No,0.615782976150513,lcmd,1,Middle,Index
76,76,camille,No,0.582052087783836,lcmd,1,Middle,Index
77,77,camille,Yes,0.58408517837529,lalt,1,Index,Index
78,78,camille,Yes,0.551776838302658,lcmd,1,Middle,Middle
79,79,camille,No,0.7701282024384,lalt,1,Index,Middle
80,80,camille,No,0.66202421188359,lalt,1,Index,Middle
81,81,camille,No,0.572504901885964,lcmd,1,Middle,Index
82,82,camille,Yes,0.508099794387817,lcmd,1,Middle,Middle
83,83,camille,Yes,0.647454166412331,lalt,1,Index,Index
84,84,camille,No,0.617389059066795,lalt,1,Index,Middle
85,85,camille,Yes,0.819687938690208,lalt,1,Index,Index
86,86,camille,No,0.778584957122803,lcmd,1,Middle,Index
87,87,camille,Yes,0.508925056457542,lcmd,1,Middle,Middle
88,88,camille,Yes,0.636579799652054,lalt,1,Index,Index
89,89,camille,No,0.547567033767677,lcmd,1,Middle,Index
90,90,camille,Yes,0.641326093673683,lcmd,1,Middle,Middle
91,91,camille,No,0.787172126769974,lalt,1,Index,Middle
92,92,camille,Yes,0.79095191955571,lcmd,1,Middle,Middle
93,93,camille,Yes,0.594997024536156,lalt,1,Index,Index
94,94,camille,No,0.758641004562378,lalt,1,Index,Middle
95,95,camille,No,0.566520023345902,lcmd,1,Middle,Index
96,96,camille,No,0.672547864913895,lcmd,1,Middle,Index
97,97,camille,Yes,0.78703103065493,lcmd,1,Middle,Middle
98,98,camille,No,0.783291196823143,lalt,1,Index,Middle
99,99,camille,Yes,0.652878952026413,lalt,1,Index,Index
100,100,camille,Yes,0.616973924636795,lcmd,1,Middle,Middle
101,101,camille,No,0.77809996604924,lcmd,1,Middle,Index
102,102,camille,No,0.605465936660721,lalt,1,Index,Middle
103,103,camille,Yes,0.691471862792923,lalt,1,Index,Index
104,104,camille,No,0.486104154586769,lalt,1,Index,Middle
105,105,camille,Yes,0.492530012130715,lcmd,1,Middle,Middle
106,106,camille,Yes,0.722931957244896,lalt,1,Index,Index
107,107,camille,No,0.719579935073853,lcmd,1,Middle,Index
108,108,camille,Yes,0.568893098831154,lalt,1,Index,Index
109,109,camille,Yes,0.509004068374679,lcmd,1,Middle,Middle
110,110,camille,No,0.526490974426224,lcmd,1,Middle,Index
111,111,camille,No,0.606061983108475,lalt,1,Index,Middle
112,112,camille,No,0.574106931686401,lalt,1,Index,Middle
113,113,camille,Yes,0.56656818389888,lcmd,1,Middle,Middle
114,114,camille,No,0.560219001770065,lcmd,1,Middle,Index
115,115,camille,Yes,0.486244106292702,lalt,1,Index,Index
116,116,camille,Yes,0.532888984680199,lalt,1,Index,Index
117,117,camille,Yes,0.469540929794334,lcmd,1,Middle,Middle
118,118,camille,No,0.50368199348452,lcmd,1,Middle,Index
119,119,camille,No,0.580654144287109,lalt,1,Index,Middle
0,0,Caroline,No,-5.73662385941,lcmd,1,Middle,Index
1,1,Caroline,Yes,0.729153203964,lalt,1,Index,Index
2,2,Caroline,Yes,0.475128936768,lcmd,1,Middle,Middle
3,3,Caroline,No,0.770250892639,lalt,1,Index,Middle
4,4,Caroline,Yes,0.567448186874,lalt,1,Index,Index
5,5,Caroline,No,0.674514102936,lalt,1,Index,Middle
6,6,Caroline,No,0.546208095551,lcmd,1,Middle,Index
7,7,Caroline,Yes,0.891104078293,lcmd,1,Middle,Middle
8,8,Caroline,Yes,0.540769052505,lalt,1,Index,Index
9,9,Caroline,No,0.64100394249,lcmd,1,Middle,Index
10,10,Caroline,No,0.699762010574,lalt,1,Index,Middle
11,11,Caroline,Yes,0.617804908752,lcmd,1,Middle,Middle
12,12,Caroline,Yes,0.631214809418,lcmd,1,Middle,Middle
13,13,Caroline,No,0.659765005112,lalt,1,Index,Middle
14,14,Caroline,Yes,0.541212081909,lalt,1,Index,Index
15,15,Caroline,No,0.575796031952,lcmd,1,Middle,Index
16,16,Caroline,No,0.778523159027,lalt,1,Index,Middle
17,17,Caroline,No,0.564009094238,lcmd,1,Middle,Index
18,18,Caroline,Yes,0.466729974747,lcmd,1,Middle,Middle
19,19,Caroline,Yes,0.487279987335,lalt,1,Index,Index
20,20,Caroline,No,0.450796937942,lcmd,1,Middle,Index
21,21,Caroline,Yes,0.3994120121,lalt,0,Middle,Middle
22,22,Caroline,No,0.771157884598,lalt,1,Index,Middle
23,23,Caroline,Yes,0.599837017059,lalt,1,Index,Index
24,24,Caroline,Yes,0.53951716423,lcmd,1,Middle,Middle
25,25,Caroline,No,0.641253948212,lalt,1,Index,Middle
26,26,Caroline,Yes,0.566382980347,lalt,1,Index,Index
27,27,Caroline,No,0.591100072861,lcmd,1,Middle,Index
28,28,Caroline,No,0.58974480629,lalt,1,Index,Middle
29,29,Caroline,Yes,0.541122055054,lalt,1,Index,Index
30,30,Caroline,No,0.596395111084,lcmd,1,Middle,Index
31,31,Caroline,Yes,0.568622875214,lcmd,1,Middle,Middle
32,32,Caroline,No,0.877776908875,lalt,1,Index,Middle
33,33,Caroline,No,1.08372087479,lcmd,1,Middle,Index
34,34,Caroline,Yes,0.603874921799,lalt,1,Index,Index
35,35,Caroline,Yes,0.454718923569,lcmd,1,Middle,Middle
36,36,Caroline,No,0.590240049362,lalt,1,Index,Middle
37,37,Caroline,No,0.532503938675,lcmd,1,Middle,Index
38,38,Caroline,Yes,0.490576982498,lcmd,1,Middle,Middle
39,39,Caroline,Yes,0.987757015228,lalt,1,Index,Index
40,40,Caroline,No,0.602724838257,lalt,1,Index,Middle
41,41,Caroline,Yes,0.630295991898,lalt,1,Index,Index
42,42,Caroline,Yes,0.581634998322,lcmd,1,Middle,Middle
43,43,Caroline,No,0.654477024078,lcmd,1,Middle,Index
44,44,Caroline,Yes,0.45178899765,lcmd,1,Middle,Middle
45,45,Caroline,No,0.429531908035,lcmd,1,Middle,Index
46,46,Caroline,Yes,0.650463962555,lalt,1,Index,Index
47,47,Caroline,No,0.67930316925,lalt,1,Index,Middle
48,48,Caroline,Yes,0.657414007187,lalt,1,Index,Index
49,49,Caroline,Yes,0.584001970291,lcmd,1,Middle,Middle
50,50,Caroline,No,0.706226062775,lcmd,1,Middle,Index
51,51,Caroline,No,0.630619907379,lalt,1,Index,Middle
52,52,Caroline,Yes,0.965035057068,lalt,1,Index,Index
53,53,Caroline,No,0.944866991043,lalt,1,Index,Middle
54,54,Caroline,No,0.664533948898,lcmd,1,Middle,Index
55,55,Caroline,Yes,0.556227970123,lcmd,1,Middle,Middle
56,56,Caroline,Yes,0.486904001236,lcmd,1,Middle,Middle
57,57,Caroline,No,0.473167800903,lcmd,1,Middle,Index
58,58,Caroline,No,0.608830928802,lalt,1,Index,Middle
59,59,Caroline,Yes,0.543585109711,lalt,1,Index,Index
60,60,Caroline,No,1.19421515465,lalt,1,Index,Middle
61,61,Caroline,Yes,0.583930110931,lalt,1,Index,Index
62,62,Caroline,No,0.907222127914,lcmd,1,Middle,Index
63,63,Caroline,Yes,1.16107702255,lcmd,1,Middle,Middle
64,64,Caroline,Yes,0.495151138306,lalt,1,Index,Index
65,65,Caroline,Yes,0.571470880508,lcmd,1,Middle,Middle
66,66,Caroline,No,0.60093588829,lcmd,1,Middle,Index
67,67,Caroline,No,0.680852127075,lalt,1,Index,Middle
68,68,Caroline,Yes,0.553718042374,lalt,1,Index,Index
69,69,Caroline,No,0.501014900208,lcmd,1,Middle,Index
70,70,Caroline,No,0.742372083664,lalt,1,Index,Middle
71,71,Caroline,Yes,0.52635512352,lcmd,1,Middle,Middle
72,72,Caroline,No,0.526893091202,lcmd,1,Middle,Index
73,73,Caroline,Yes,0.647369861603,lalt,1,Index,Index
74,74,Caroline,No,0.577697849274,lalt,1,Index,Middle
75,75,Caroline,Yes,0.578154945374,lcmd,1,Middle,Middle
76,76,Caroline,Yes,0.574170780182,lcmd,1,Middle,Middle
77,77,Caroline,No,0.663866138458,lalt,1,Index,Middle
78,78,Caroline,Yes,0.552551174164,lalt,1,Index,Index
79,79,Caroline,No,0.498132801056,lcmd,1,Middle,Index
80,80,Caroline,Yes,0.692497014999,lalt,1,Index,Index
81,81,Caroline,No,0.625143098831,lcmd,1,Middle,Index
82,82,Caroline,Yes,0.542657089233,lcmd,1,Middle,Middle
83,83,Caroline,No,0.632978057861,lalt,1,Index,Middle
84,84,Caroline,No,0.465719127655,lcmd,1,Middle,Index
85,85,Caroline,No,0.650707006454,lalt,1,Index,Middle
86,86,Caroline,Yes,0.601255130768,lalt,1,Index,Index
87,87,Caroline,Yes,0.575487041473,lcmd,1,Middle,Middle
88,88,Caroline,Yes,0.573825931549,lalt,1,Index,Index
89,89,Caroline,No,0.706233978271,lalt,1,Index,Middle
90,90,Caroline,No,0.653896999359,lcmd,1,Middle,Index
91,91,Caroline,Yes,0.541448926926,lcmd,1,Middle,Middle
92,92,Caroline,Yes,0.681651878357,lalt,1,Index,Index
93,93,Caroline,No,0.672591876984,lalt,1,Index,Middle
94,94,Caroline,Yes,0.609600830078,lcmd,1,Middle,Middle
95,95,Caroline,No,0.641350078583,lcmd,1,Middle,Index
96,96,Caroline,No,0.633237028122,lcmd,1,Middle,Index
97,97,Caroline,Yes,0.635776042938,lalt,1,Index,Index
98,98,Caroline,Yes,0.566801977158,lcmd,1,Middle,Middle
99,99,Caroline,No,0.561248016357,lalt,1,Index,Middle
100,100,Caroline,Yes,0.65053191185,lalt,1,Index,Index
101,101,Caroline,No,0.579881858826,lcmd,1,Middle,Index
102,102,Caroline,No,1.37786493301,lalt,1,Index,Middle
103,103,Caroline,Yes,0.723020935059,lcmd,1,Middle,Middle
104,104,Caroline,Yes,0.504767036438,lalt,1,Index,Index
105,105,Caroline,Yes,0.535466146469,lcmd,1,Middle,Middle
106,106,Caroline,No,0.727170038223,lcmd,1,Middle,Index
107,107,Caroline,No,0.804486989975,lalt,1,Index,Middle
108,108,Caroline,Yes,0.618653821945,lcmd,1,Middle,Middle
109,109,Caroline,Yes,0.559857940674,lalt,1,Index,Index
110,110,Caroline,No,-0.536430025101,lalt,1,Index,Middle
111,111,Caroline,No,0.575252103805,lcmd,1,Middle,Index
112,112,Caroline,No,0.667740917206,lalt,0,Middle,Index
113,113,Caroline,No,0.634115123749,lalt,1,Index,Middle
114,114,Caroline,Yes,0.613911056519,lalt,1,Index,Index
115,115,Caroline,Yes,0.701277160645,lcmd,1,Middle,Middle
116,116,Caroline,No,0.650298070908,lalt,1,Index,Middle
117,117,Caroline,Yes,0.569217967987,lalt,1,Index,Index
118,118,Caroline,Yes,0.631432962418,lcmd,1,Middle,Middle
119,119,Caroline,No,0.65791311264,lcmd,1,Middle,Index
0,0,Celine,No,-22.6729840279,lcmd,0,Index,Middle
1,1,Celine,No,0.447237920761,lcmd,1,Middle,Index
2,2,Celine,Yes,0.449593019485,lalt,1,Index,Index
3,3,Celine,Yes,0.336649036407,lcmd,1,Middle,Middle
4,4,Celine,Yes,0.342174005508,lcmd,1,Middle,Middle
5,5,Celine,No,0.563808012009,lcmd,1,Middle,Index
6,6,Celine,No,0.438506984711,lalt,1,Index,Middle
7,7,Celine,Yes,0.414484977722,lalt,1,Index,Index
8,8,Celine,Yes,0.386372947693,lalt,1,Index,Index
9,9,Celine,No,0.526351881027,lalt,1,Index,Middle
10,10,Celine,Yes,0.519520139694,lcmd,1,Middle,Middle
11,11,Celine,No,0.484332084656,lcmd,1,Middle,Index
12,12,Celine,Yes,0.498485994339,lcmd,1,Middle,Middle
13,13,Celine,Yes,0.396983957291,lalt,1,Index,Index
14,14,Celine,No,0.54845290184,lalt,1,Index,Middle
15,15,Celine,No,0.560136127472,lcmd,1,Middle,Index
16,16,Celine,Yes,0.416407012939,lalt,1,Index,Index
17,17,Celine,No,0.448701000214,lalt,1,Index,Middle
18,18,Celine,Yes,0.470459842682,lcmd,1,Middle,Middle
19,19,Celine,No,0.317410039902,lalt,0,Middle,Index
20,20,Celine,Yes,0.45335483551,lcmd,1,Middle,Middle
21,21,Celine,No,0.58877120018,lalt,1,Index,Middle
22,22,Celine,Yes,0.44457321167,lalt,1,Index,Index
23,23,Celine,No,0.654043865204,lcmd,1,Middle,Index
24,24,Celine,No,0.486192131042,lcmd,1,Middle,Index
25,25,Celine,No,0.445485019684,lalt,1,Index,Middle
26,26,Celine,Yes,0.496899032593,lalt,1,Index,Index
27,27,Celine,Yes,0.576736021042,lcmd,1,Middle,Middle
28,28,Celine,No,0.557449007034,lcmd,1,Middle,Index
29,29,Celine,Yes,0.508985853195,lcmd,1,Middle,Middle
30,30,Celine,No,0.641672992706,lalt,1,Index,Middle
31,31,Celine,Yes,0.50472202301,lalt,1,Index,Index
32,32,Celine,No,0.556559038162,lcmd,1,Middle,Index
33,33,Celine,No,0.651181077957,lalt,1,Index,Middle
34,34,Celine,Yes,0.477802944183,lalt,1,Index,Index
35,35,Celine,Yes,0.457158851624,lcmd,1,Middle,Middle
36,36,Celine,No,0.608266067505,lcmd,1,Middle,Index
37,37,Celine,Yes,0.349339962006,lalt,1,Index,Index
38,38,Celine,Yes,0.461222076416,lcmd,1,Middle,Middle
39,39,Celine,No,0.454739189148,lcmd,0,Index,Middle
40,40,Celine,No,0.59430513382,lcmd,1,Middle,Index
41,41,Celine,Yes,0.578270149231,lcmd,1,Middle,Middle
42,42,Celine,Yes,0.469545888901,lalt,1,Index,Index
43,43,Celine,No,0.685078859329,lalt,1,Index,Middle
44,44,Celine,No,0.638569021225,lcmd,1,Middle,Index
45,45,Celine,No,0.60272397995,lalt,1,Index,Middle
46,46,Celine,Yes,0.52556385994,lcmd,1,Middle,Middle
47,47,Celine,Yes,0.542485189438,lalt,1,Index,Index
48,48,Celine,Yes,0.533483076096,lalt,1,Index,Index
49,49,Celine,No,0.578102111816,lcmd,1,Middle,Index
50,50,Celine,No,0.571475028992,lalt,1,Index,Middle
51,51,Celine,Yes,0.406438064575,lcmd,1,Middle,Middle
52,52,Celine,No,0.362043094635,lalt,1,Index,Middle
53,53,Celine,Yes,0.455019950867,lcmd,1,Middle,Middle
54,54,Celine,No,0.668453025818,lcmd,1,Middle,Index
55,55,Celine,Yes,0.436277866364,lalt,1,Index,Index
56,56,Celine,Yes,0.401842069626,lcmd,1,Middle,Middle
57,57,Celine,No,0.602964115143,lcmd,1,Middle,Index
58,58,Celine,Yes,0.434243202209,lalt,1,Index,Index
59,59,Celine,No,0.682162904739,lalt,1,Index,Middle
60,60,Celine,Yes,0.459984111786,lcmd,1,Middle,Middle
61,61,Celine,No,0.777642059326,lcmd,1,Middle,Index
62,62,Celine,No,0.472073078156,lcmd,0,Index,Middle
63,63,Celine,Yes,0.66849193573,lalt,1,Index,Index
64,64,Celine,No,0.749611139297,lcmd,1,Middle,Index
65,65,Celine,No,0.697183084488,lalt,1,Index,Middle
66,66,Celine,Yes,0.435520982742,lcmd,1,Middle,Middle
67,67,Celine,Yes,0.393211078644,lalt,1,Index,Index
68,68,Celine,Yes,0.480900001526,lalt,1,Index,Index
69,69,Celine,No,0.563576984406,lcmd,1,Middle,Index
70,70,Celine,No,0.544108009338,lalt,1,Index,Middle
71,71,Celine,Yes,0.336129045486,lcmd,1,Middle,Middle
72,72,Celine,Yes,0.566671085358,lcmd,1,Middle,Middle
73,73,Celine,No,0.699799966812,lcmd,1,Middle,Index
74,74,Celine,No,0.379078865051,lalt,1,Index,Middle
75,75,Celine,Yes,0.554602909088,lalt,1,Index,Index
76,76,Celine,Yes,0.44149107933,lcmd,1,Middle,Middle
77,77,Celine,No,0.691112232208,lcmd,1,Middle,Index
78,78,Celine,Yes,0.653657054901,lalt,1,Index,Index
79,79,Celine,No,0.579655981064,lalt,1,Index,Middle
80,80,Celine,No,0.698897171021,lalt,1,Index,Middle
81,81,Celine,Yes,0.50148806572,lcmd,1,Middle,Middle
82,82,Celine,Yes,0.522965860367,lalt,1,Index,Index
83,83,Celine,No,0.468908119202,lcmd,1,Middle,Index
84,84,Celine,Yes,0.42303891182,lalt,1,Index,Index
85,85,Celine,No,0.570526838303,lcmd,1,Middle,Index
86,86,Celine,Yes,0.472639894485,lcmd,1,Middle,Middle
87,87,Celine,No,0.461823177338,lalt,1,Index,Middle
88,88,Celine,Yes,0.565104913712,lcmd,1,Middle,Middle
89,89,Celine,No,0.517013072968,lcmd,1,Middle,Index
90,90,Celine,No,0.441033029556,lalt,1,Index,Middle
91,91,Celine,Yes,0.379562091827,lcmd,0,Index,Index
92,92,Celine,No,0.269193935394,lcmd,0,Index,Middle
93,93,Celine,Yes,0.376629924774,lcmd,1,Middle,Middle
94,94,Celine,No,0.573701906204,lcmd,1,Middle,Index
95,95,Celine,Yes,0.384876966476,lalt,1,Index,Index
96,96,Celine,No,0.487791013718,lalt,1,Index,Middle
97,97,Celine,Yes,0.420211982727,lalt,1,Index,Index
98,98,Celine,No,0.534148073196,lcmd,1,Middle,Index
99,99,Celine,Yes,0.633458042145,lcmd,1,Middle,Middle
100,100,Celine,Yes,0.382215929031,lalt,1,Index,Index
101,101,Celine,Yes,0.362307977676,lcmd,1,Middle,Middle
102,102,Celine,No,0.839824151993,lcmd,1,Middle,Index
103,103,Celine,No,0.432460784912,lalt,1,Index,Middle
104,104,Celine,Yes,0.468596076965,lalt,1,Index,Index
105,105,Celine,No,0.537214040756,lcmd,1,Middle,Index
106,106,Celine,No,0.412320947647,lalt,1,Index,Middle
107,107,Celine,Yes,0.404472160339,lcmd,1,Middle,Middle
108,108,Celine,No,0.682233142853,lalt,1,Index,Middle
109,109,Celine,Yes,0.518755912781,lalt,1,Index,Index
110,110,Celine,Yes,0.40570101738,lcmd,1,Middle,Middle
111,111,Celine,No,0.595296096802,lcmd,1,Middle,Index
112,112,Celine,Yes,0.354031944275,lalt,1,Index,Index
113,113,Celine,Yes,0.502571105957,lcmd,1,Middle,Middle
114,114,Celine,No,0.484107923508,lcmd,1,Middle,Index
115,115,Celine,No,0.406641864777,lalt,1,Index,Middle
116,116,Celine,Yes,0.395674037933,lalt,1,Index,Index
117,117,Celine,Yes,0.348417043686,lcmd,1,Middle,Middle
118,118,Celine,No,0.30293507576,lalt,0,Middle,Index
119,119,Celine,No,0.98363494873,lalt,1,Index,Middle
0,0,CT,No,-41.9347723696381,lalt,1,Middle,Index
1,1,CT,Yes,-9.55317157953978,lalt,1,Middle,Middle
2,2,CT,No,-5.21854742886498,lalt,1,Index,Middle
3,3,CT,Yes,-9.2682212145999,lalt,1,Index,Index
4,4,CT,Yes,-13.1201943740249,lalt,1,Middle,Middle
5,5,CT,Yes,-11.0550642331131,lcmd,1,Index,Index
6,6,CT,No,0.544804448913794,lcmd,1,Index,Middle
7,7,CT,No,0.428806977067154,lalt,1,Middle,Index
8,8,CT,Yes,0.483361525554216,lalt,1,Middle,Middle
9,9,CT,Yes,0.430315138399607,lcmd,1,Index,Index
10,10,CT,No,0.434819102566678,lalt,1,Middle,Index
11,11,CT,No,0.522014354262495,lcmd,1,Index,Middle
12,12,CT,No,0.567206062003976,lalt,1,Middle,Index
13,13,CT,No,0.639138971269119,lcmd,1,Index,Middle
14,14,CT,Yes,0.400645673088718,lalt,1,Middle,Middle
15,15,CT,Yes,0.40506853237747,lcmd,1,Index,Index
16,16,CT,Yes,0.423375808447588,lcmd,1,Index,Index
17,17,CT,No,0.522259207256127,lalt,1,Middle,Index
18,18,CT,Yes,0.448768493998784,lalt,1,Middle,Middle
19,19,CT,No,0.576212052628392,lcmd,1,Index,Middle
20,20,CT,No,0.450831734854717,lcmd,1,Index,Middle
21,21,CT,No,0.537091175373632,lalt,1,Middle,Index
22,22,CT,Yes,0.40058645438404,lcmd,1,Index,Index
23,23,CT,Yes,0.416041783988476,lalt,1,Middle,Middle
24,24,CT,No,0.514518177229917,lalt,1,Middle,Index
25,25,CT,Yes,0.511381594277907,lalt,1,Middle,Middle
26,26,CT,Yes,0.445824613701546,lcmd,1,Index,Index
27,27,CT,No,0.426033513899881,lcmd,1,Index,Middle
28,28,CT,No,0.41554962657392,lalt,1,Middle,Index
29,29,CT,Yes,0.427403289359063,lcmd,1,Index,Index
30,30,CT,Yes,0.405271550733602,lalt,1,Middle,Middle
31,31,CT,No,0.487128536030639,lcmd,1,Index,Middle
32,32,CT,No,0.578168825898331,lalt,1,Middle,Index
33,33,CT,Yes,0.417781005147845,lcmd,1,Index,Index
34,34,CT,No,0.518090320471686,lcmd,1,Index,Middle
35,35,CT,Yes,0.398360946588213,lalt,1,Middle,Middle
36,36,CT,Yes,0.446991940774012,lalt,1,Middle,Middle
37,37,CT,Yes,0.441223357710982,lcmd,1,Index,Index
38,38,CT,No,0.373078091721993,lalt,1,Middle,Index
39,39,CT,No,0.429266362171631,lcmd,1,Index,Middle
40,40,CT,No,0.527284510247398,lcmd,1,Middle,Index
41,41,CT,No,0.512545273732371,lcmd,1,Index,Middle
42,42,CT,Yes,0.502446677349496,lcmd,1,Index,Index
43,43,CT,Yes,0.417307998426281,lalt,1,Middle,Middle
44,44,CT,No,0.512207005266077,lcmd,1,Index,Middle
45,45,CT,Yes,0.314703925885283,lalt,1,Middle,Middle
46,46,CT,Yes,0.407922018133092,lcmd,1,Index,Index
47,47,CT,No,0.589241534378402,lalt,1,Middle,Index
48,48,CT,No,0.370455039571993,lcmd,1,Index,Middle
49,49,CT,No,0.448305404558766,lalt,1,Middle,Index
50,50,CT,Yes,0.469047248177219,lcmd,1,Index,Index
51,51,CT,Yes,0.495225618407119,lalt,1,Middle,Middle
52,52,CT,No,0.39054616410283,lcmd,1,Index,Middle
53,53,CT,Yes,0.394365497399122,lalt,1,Middle,Middle
54,54,CT,No,0.729821271076787,lalt,1,Middle,Index
55,55,CT,Yes,0.490978875011194,lcmd,1,Index,Index
56,56,CT,No,0.500619967747468,lalt,1,Middle,Index
57,57,CT,Yes,0.433639065083128,lalt,1,Middle,Middle
58,58,CT,Yes,0.380438790377241,lcmd,1,Index,Index
59,59,CT,No,0.464185407850891,lcmd,1,Index,Middle
60,60,CT,Yes,0.48950251759959,lcmd,1,Index,Index
61,61,CT,Yes,0.380815930198878,lalt,1,Middle,Middle
62,62,CT,No,0.462967297714215,lcmd,1,Index,Middle
63,63,CT,No,0.545074095111318,lalt,1,Middle,Index
64,64,CT,Yes,0.462538748141355,lalt,1,Middle,Middle
65,65,CT,No,0.556607670336973,lalt,1,Middle,Index
66,66,CT,No,0.520151053648419,lcmd,1,Index,Middle
67,67,CT,Yes,0.487582278158527,lcmd,1,Index,Index
68,68,CT,No,0.399949243478488,lalt,1,Middle,Index
69,69,CT,Yes,0.433187375031423,lcmd,1,Index,Index
70,70,CT,No,0.607797710411262,lcmd,1,Index,Middle
71,71,CT,Yes,0.434147295542061,lalt,1,Middle,Middle
72,72,CT,Yes,0.388975991867483,lcmd,1,Index,Index
73,73,CT,Yes,0.334126036055409,lalt,1,Middle,Middle
74,74,CT,No,0.541594968922425,lalt,1,Index,Middle
75,75,CT,No,0.635310917813342,lalt,1,Middle,Index
76,76,CT,No,0.472677982505388,lcmd,1,Index,Middle
77,77,CT,Yes,0.443166394997377,lcmd,1,Index,Index
78,78,CT,Yes,0.354122775793087,lalt,1,Middle,Middle
79,79,CT,No,0.51243202369659,lalt,1,Middle,Index
80,80,CT,No,0.47456014882772,lalt,1,Middle,Index
81,81,CT,Yes,0.465363849326991,lalt,1,Middle,Middle
82,82,CT,Yes,0.447177005559183,lcmd,1,Index,Index
83,83,CT,No,0.506551615055628,lcmd,1,Index,Middle
84,84,CT,No,0.48594730189069,lalt,1,Middle,Index
85,85,CT,Yes,0.428316986095183,lalt,1,Middle,Middle
86,86,CT,No,0.468454208504397,lcmd,1,Index,Middle
87,87,CT,Yes,0.426961972191918,lcmd,1,Index,Index
88,88,CT,No,0.630428217351437,lalt,1,Middle,Index
89,89,CT,Yes,0.460543844103825,lalt,1,Middle,Middle
90,90,CT,No,0.448856438044459,lcmd,1,Index,Middle
91,91,CT,Yes,0.578164266143006,lcmd,1,Index,Index
92,92,CT,Yes,0.488283723592758,lcmd,1,Index,Index
93,93,CT,No,0.572815911844373,lalt,1,Middle,Index
94,94,CT,No,0.557465682551253,lcmd,1,Index,Middle
95,95,CT,Yes,0.500548495166015,lalt,1,Middle,Middle
96,96,CT,No,0.445737809129071,lcmd,1,Index,Middle
97,97,CT,Yes,0.426432425994449,lalt,1,Middle,Middle
98,98,CT,Yes,0.313371653109812,lcmd,1,Index,Index
99,99,CT,No,0.399226653389633,lalt,1,Middle,Index
100,100,CT,No,0.428061189316224,lcmd,1,Index,Middle
101,101,CT,No,0.408202664367877,lalt,1,Middle,Index
102,102,CT,Yes,0.534725287742901,lalt,1,Middle,Middle
103,103,CT,Yes,0.379480522591621,lcmd,1,Index,Index
104,104,CT,No,0.465689807664603,lcmd,1,Index,Middle
105,105,CT,Yes,0.413548112101864,lcmd,1,Index,Index
106,106,CT,No,0.413850188441586,lalt,1,Middle,Index
107,107,CT,Yes,0.463474729936593,lalt,1,Middle,Middle
108,108,CT,Yes,0.410608392208815,lcmd,1,Index,Index
109,109,CT,No,0.353725117538147,lalt,1,Middle,Index
110,110,CT,Yes,0.508666893746692,lalt,1,Middle,Middle
111,111,CT,No,0.551204884890467,lcmd,1,Index,Middle
112,112,CT,Yes,0.476418433617823,lcmd,1,Index,Index
113,113,CT,No,0.394298470206536,lalt,1,Middle,Index
114,114,CT,No,0.377846401743568,lcmd,1,Index,Middle
115,115,CT,Yes,0.350534160621464,lalt,1,Middle,Middle
116,116,CT,Yes,0.541177932173014,lalt,1,Middle,Middle
117,117,CT,No,0.496671425737418,lcmd,1,Index,Middle
118,118,CT,No,0.435779535397842,lalt,1,Middle,Index
119,119,CT,Yes,0.487366150971525,lcmd,1,Index,Index
0,0,Isa,Yes,-29.2496510506,lalt,1,Index,Index
1,1,Isa,No,0.498221969604,lalt,1,Index,Middle
2,2,Isa,No,0.633625030518,lcmd,1,Middle,Index
3,3,Isa,Yes,0.600679922104,lcmd,1,Middle,Middle
4,4,Isa,No,0.543544864655,lalt,1,Index,Middle
5,5,Isa,No,0.482891130447,lcmd,1,Middle,Index
6,6,Isa,Yes,0.555772161484,lcmd,1,Middle,Middle
7,7,Isa,Yes,0.477609014511,lalt,1,Index,Index
8,8,Isa,Yes,0.393424081802,lalt,1,Index,Index
9,9,Isa,No,0.773406934738,lalt,1,Index,Middle
10,10,Isa,Yes,0.630152845383,lcmd,1,Middle,Middle
11,11,Isa,No,0.657618951797,lcmd,1,Middle,Index
12,12,Isa,Yes,0.488406896591,lalt,1,Index,Index
13,13,Isa,Yes,0.4814930439,lcmd,1,Middle,Middle
14,14,Isa,No,0.712609004974,lcmd,1,Middle,Index
15,15,Isa,No,0.484796047211,lalt,1,Index,Middle
16,16,Isa,No,0.523595905304,lalt,1,Index,Middle
17,17,Isa,No,0.438434171677,lcmd,1,Middle,Index
18,18,Isa,Yes,0.544880914688,lcmd,1,Middle,Middle
19,19,Isa,Yes,0.470587062836,lalt,1,Index,Index
20,20,Isa,Yes,0.519094896317,lcmd,1,Middle,Middle
21,21,Isa,No,0.453180789948,lcmd,1,Middle,Index
22,22,Isa,No,0.49665017128,lalt,1,Index,Middle
23,23,Isa,Yes,0.48028421402,lalt,1,Index,Index
24,24,Isa,No,0.531301116943,lcmd,1,Middle,Index
25,25,Isa,Yes,0.488260221481,lcmd,1,Middle,Middle
26,26,Isa,Yes,0.487517881393,lalt,1,Index,Index
27,27,Isa,No,0.580076932907,lalt,1,Index,Middle
28,28,Isa,Yes,0.427269077301,lcmd,1,Middle,Middle
29,29,Isa,Yes,0.404876995087,lalt,1,Index,Index
30,30,Isa,No,0.433853149414,lcmd,1,Middle,Index
31,31,Isa,No,0.546380996704,lalt,1,Index,Middle
32,32,Isa,No,0.417632865906,lcmd,1,Middle,Index
33,33,Isa,Yes,0.486445999146,lcmd,1,Middle,Middle
34,34,Isa,Yes,-0.586598873138,lalt,1,Index,Index
35,35,Isa,No,0.491222095489,lalt,1,Index,Middle
36,36,Isa,No,0.480749893188,lcmd,1,Middle,Index
37,37,Isa,Yes,0.528628015518,lcmd,1,Middle,Middle
38,38,Isa,Yes,0.428085041046,lalt,1,Index,Index
39,39,Isa,No,0.346868896484,lalt,1,Index,Middle
40,40,Isa,Yes,0.529495811462,lcmd,1,Middle,Middle
41,41,Isa,No,0.528747081757,lalt,1,Index,Middle
42,42,Isa,No,0.4078520298,lcmd,1,Middle,Index
43,43,Isa,Yes,0.488168001175,lalt,1,Index,Index
44,44,Isa,No,0.400258159637,lcmd,1,Middle,Index
45,45,Isa,No,-0.804141044617,lalt,1,Index,Middle
46,46,Isa,Yes,0.466120195389,lalt,1,Index,Index
47,47,Isa,Yes,0.602388000488,lcmd,1,Middle,Middle
48,48,Isa,No,-1.18358197212,lalt,1,Index,Middle
49,49,Isa,No,0.65231795311,lcmd,1,Middle,Index
50,50,Isa,Yes,0.506189107895,lalt,1,Index,Index
51,51,Isa,Yes,0.53767209053,lcmd,1,Middle,Middle
52,52,Isa,Yes,0.521289110184,lalt,1,Index,Index
53,53,Isa,No,0.390524959564,lcmd,1,Middle,Index
54,54,Isa,Yes,0.580328035355,lcmd,1,Middle,Middle
55,55,Isa,No,0.406703090668,lalt,1,Index,Middle
56,56,Isa,Yes,0.499213790894,lcmd,1,Middle,Middle
57,57,Isa,No,0.452758979797,lalt,1,Index,Middle
58,58,Isa,Yes,0.498909902573,lalt,1,Index,Index
59,59,Isa,No,0.650307989121,lcmd,1,Middle,Index
60,60,Isa,Yes,0.488356018066,lalt,1,Index,Index
61,61,Isa,No,0.597291994095,lcmd,1,Middle,Index
62,62,Isa,Yes,0.48363404274,lcmd,1,Middle,Middle
63,63,Isa,No,0.543600082397,lalt,1,Index,Middle
64,64,Isa,Yes,0.578867006302,lcmd,1,Middle,Middle
65,65,Isa,No,0.511981916428,lcmd,1,Middle,Index
66,66,Isa,Yes,0.377369976044,lalt,1,Index,Index
67,67,Isa,No,0.382230997086,lalt,1,Index,Middle
68,68,Isa,Yes,0.577219057083,lcmd,1,Middle,Middle
69,69,Isa,Yes,-0.167935037613,lalt,1,Index,Index
70,70,Isa,No,0.475267076492,lcmd,1,Middle,Index
71,71,Isa,No,0.512157821655,lalt,1,Index,Middle
72,72,Isa,Yes,0.441363048553,lalt,1,Index,Index
73,73,Isa,No,0.373695993423,lalt,1,Index,Middle
74,74,Isa,Yes,0.412018966675,lcmd,1,Middle,Middle
75,75,Isa,No,0.472471046448,lcmd,1,Middle,Index
76,76,Isa,No,-1.47989406586,lalt,0,Middle,Index
77,77,Isa,Yes,-0.219008970261,lalt,1,Index,Index
78,78,Isa,No,-1.42796897888,lalt,1,Index,Middle
79,79,Isa,Yes,0.437834024429,lcmd,1,Middle,Middle
80,80,Isa,No,0.442509126663,lcmd,1,Middle,Index
81,81,Isa,Yes,0.4431391716,lcmd,1,Middle,Middle
82,82,Isa,No,0.482595062256,lalt,1,Index,Middle
83,83,Isa,Yes,0.479961013794,lalt,1,Index,Index
84,84,Isa,Yes,0.481312990189,lalt,1,Index,Index
85,85,Isa,Yes,0.591811132431,lcmd,1,Middle,Middle
86,86,Isa,No,0.482255029678,lalt,1,Index,Middle
87,87,Isa,No,0.710104131699,lcmd,1,Middle,Index
88,88,Isa,Yes,0.446613121033,lalt,1,Index,Index
89,89,Isa,No,0.45640206337,lalt,1,Index,Middle
90,90,Isa,Yes,0.544052934647,lcmd,1,Middle,Middle
91,91,Isa,No,0.479957151413,lcmd,1,Middle,Index
92,92,Isa,No,0.528745937347,lalt,1,Index,Middle
93,93,Isa,No,0.550493860245,lcmd,1,Middle,Index
94,94,Isa,Yes,-0.00942997932435,lalt,1,Index,Index
95,95,Isa,Yes,0.50154094696,lcmd,1,Middle,Middle
96,96,Isa,No,0.409014987946,lalt,1,Index,Middle
97,97,Isa,No,0.512617015839,lcmd,1,Middle,Index
98,98,Isa,Yes,0.33240981102,lalt,1,Index,Index
99,99,Isa,Yes,0.430758905411,lcmd,1,Middle,Middle
100,100,Isa,No,0.374352073669,lalt,0,Middle,Index
101,101,Isa,Yes,0.440725946426,lcmd,1,Middle,Middle
102,102,Isa,No,0.38494105339,lalt,1,Index,Middle
103,103,Isa,Yes,0.625325012207,lalt,1,Index,Index
104,104,Isa,No,0.549301099777,lalt,1,Index,Middle
105,105,Isa,Yes,0.598556995392,lcmd,1,Middle,Middle
106,106,Isa,Yes,0.576205921173,lalt,1,Index,Index
107,107,Isa,No,0.495865106583,lcmd,1,Middle,Index
108,108,Isa,Yes,0.475638008118,lalt,1,Index,Index
109,109,Isa,Yes,0.471829032898,lcmd,1,Middle,Middle
110,110,Isa,No,0.605006027222,lcmd,1,Middle,Index
111,111,Isa,No,0.657806825638,lalt,1,Index,Middle
112,112,Isa,Yes,-0.0376618862152,lalt,1,Index,Index
113,113,Isa,No,0.475210952759,lcmd,1,Middle,Index
114,114,Isa,Yes,0.493083906174,lcmd,1,Middle,Middle
115,115,Isa,No,0.413375806808,lalt,1,Index,Middle
116,116,Isa,No,0.515555000305,lcmd,1,Middle,Index
117,117,Isa,Yes,0.439543008804,lcmd,1,Middle,Middle
118,118,Isa,No,0.642713165283,lalt,1,Index,Middle
119,119,Isa,Yes,0.399710083008,lalt,1,Index,Index
0,0,JulieSohn,No,-2.14838609695,lalt,0,Middle,Index
1,1,JulieSohn,Yes,0.498529052734,lalt,1,Index,Index
2,2,JulieSohn,No,0.458915138245,lalt,1,Index,Middle
3,3,JulieSohn,Yes,0.633932924271,lcmd,1,Middle,Middle
4,4,JulieSohn,Yes,0.569266033173,lalt,1,Index,Index
5,5,JulieSohn,No,0.55471200943,lalt,1,Index,Middle
6,6,JulieSohn,No,0.585015058517,lcmd,1,Middle,Index
7,7,JulieSohn,Yes,0.639775943756,lcmd,1,Middle,Middle
8,8,JulieSohn,Yes,0.501930141449,lcmd,1,Middle,Middle
9,9,JulieSohn,No,0.560452127457,lalt,1,Index,Middle
10,10,JulieSohn,Yes,0.556543016434,lalt,1,Index,Index
11,11,JulieSohn,No,0.63235502243,lcmd,1,Middle,Index
12,12,JulieSohn,No,0.76311788559,lcmd,1,Middle,Index
13,13,JulieSohn,No,0.598194026947,lalt,1,Index,Middle
14,14,JulieSohn,Yes,0.507622051239,lcmd,1,Middle,Middle
15,15,JulieSohn,Yes,0.454112005234,lalt,1,Index,Index
16,16,JulieSohn,Yes,0.657261991501,lalt,1,Index,Index
17,17,JulieSohn,No,0.792141056061,lalt,1,Index,Middle
18,18,JulieSohn,Yes,0.550684976578,lcmd,1,Middle,Middle
19,19,JulieSohn,No,0.582284164429,lcmd,1,Middle,Index
20,20,JulieSohn,Yes,0.480850076675,lalt,1,Index,Index
21,21,JulieSohn,No,0.675118923187,lcmd,1,Middle,Index
22,22,JulieSohn,No,0.65657787323,lalt,1,Index,Middle
23,23,JulieSohn,Yes,0.639182949066,lcmd,1,Middle,Middle
24,24,JulieSohn,Yes,0.508515024185,lcmd,1,Middle,Middle
25,25,JulieSohn,No,0.631693029404,lalt,1,Index,Middle
26,26,JulieSohn,No,0.507773208618,lcmd,1,Middle,Index
27,27,JulieSohn,Yes,0.693207979202,lalt,1,Index,Index
28,28,JulieSohn,Yes,0.723024988174,lalt,1,Index,Index
29,29,JulieSohn,No,0.652075862885,lalt,1,Index,Middle
30,30,JulieSohn,No,0.556944847107,lcmd,1,Middle,Index
31,31,JulieSohn,Yes,0.595563983917,lcmd,1,Middle,Middle
32,32,JulieSohn,Yes,0.54411406517,lalt,1,Index,Index
33,33,JulieSohn,No,0.468124914169,lcmd,1,Middle,Index
34,34,JulieSohn,Yes,0.58500995636,lcmd,1,Middle,Middle
35,35,JulieSohn,No,0.703199911118,lalt,1,Index,Middle
36,36,JulieSohn,No,0.584279918671,lalt,1,Index,Middle
37,37,JulieSohn,No,0.573540019989,lcmd,1,Middle,Index
38,38,JulieSohn,Yes,0.526849985123,lcmd,1,Middle,Middle
39,39,JulieSohn,Yes,0.564808082581,lalt,1,Index,Index
40,40,JulieSohn,No,0.543089914322,lcmd,1,Middle,Index
41,41,JulieSohn,Yes,0.630922031403,lcmd,1,Middle,Middle
42,42,JulieSohn,No,0.613481855392,lalt,1,Index,Middle
43,43,JulieSohn,Yes,0.610294008255,lalt,1,Index,Index
44,44,JulieSohn,No,0.540950059891,lalt,1,Index,Middle
45,45,JulieSohn,No,0.565546798706,lcmd,1,Middle,Index
46,46,JulieSohn,Yes,0.509230995178,lcmd,1,Middle,Middle
47,47,JulieSohn,Yes,0.520646905899,lalt,1,Index,Index
48,48,JulieSohn,Yes,0.518161964416,lcmd,1,Middle,Middle
49,49,JulieSohn,No,0.59563407898,lcmd,1,Middle,Index
50,50,JulieSohn,Yes,0.636165046692,lalt,1,Index,Index
51,51,JulieSohn,No,0.733729028702,lalt,1,Index,Middle
52,52,JulieSohn,No,0.52625207901,lcmd,1,Middle,Index
53,53,JulieSohn,Yes,0.879138040543,lcmd,1,Middle,Middle
54,54,JulieSohn,No,0.626544189453,lalt,1,Index,Middle
55,55,JulieSohn,Yes,0.54191403389,lalt,1,Index,Index
56,56,JulieSohn,Yes,0.535844087601,lcmd,1,Middle,Middle
57,57,JulieSohn,No,0.589621019363,lcmd,1,Middle,Index
58,58,JulieSohn,Yes,0.532585096359,lalt,1,Index,Index
59,59,JulieSohn,No,0.593356847763,lalt,1,Index,Middle
60,60,JulieSohn,Yes,0.585835170746,lalt,1,Index,Index
61,61,JulieSohn,Yes,0.754870033264,lcmd,1,Middle,Middle
62,62,JulieSohn,No,0.704141998291,lalt,1,Index,Middle
63,63,JulieSohn,No,0.733879995346,lcmd,1,Middle,Index
64,64,JulieSohn,Yes,0.576228904724,lcmd,1,Middle,Middle
65,65,JulieSohn,Yes,0.571330070496,lalt,1,Index,Index
66,66,JulieSohn,No,0.61737203598,lalt,1,Index,Middle
67,67,JulieSohn,No,0.641739940643,lcmd,1,Middle,Index
68,68,JulieSohn,Yes,0.62640414238,lcmd,1,Middle,Middle
69,69,JulieSohn,Yes,0.988429021835,lalt,1,Index,Index
70,70,JulieSohn,No,0.697990083694,lcmd,1,Middle,Index
71,71,JulieSohn,No,0.857954120636,lalt,1,Index,Middle
72,72,JulieSohn,No,0.565451860428,lalt,1,Index,Middle
73,73,JulieSohn,Yes,0.51550078392,lcmd,1,Middle,Middle
74,74,JulieSohn,No,0.693407821655,lcmd,1,Middle,Index
75,75,JulieSohn,Yes,0.733415985107,lalt,1,Index,Index
76,76,JulieSohn,No,0.656979894638,lcmd,1,Middle,Index
77,77,JulieSohn,No,0.515699148178,lalt,1,Index,Middle
78,78,JulieSohn,Yes,0.600695133209,lalt,1,Index,Index
79,79,JulieSohn,Yes,0.573479986191,lcmd,1,Middle,Middle
80,80,JulieSohn,Yes,0.562148046494,lalt,1,Index,Index
81,81,JulieSohn,No,0.64465508461,lalt,1,Index,Middle
82,82,JulieSohn,Yes,0.541003084183,lcmd,1,Middle,Middle
83,83,JulieSohn,No,0.510456132889,lcmd,1,Middle,Index
84,84,JulieSohn,No,0.517439031601,lcmd,1,Middle,Index
85,85,JulieSohn,Yes,0.583456087112,lalt,1,Index,Index
86,86,JulieSohn,No,1.04984903336,lalt,1,Index,Middle
87,87,JulieSohn,Yes,0.662722873688,lcmd,1,Middle,Middle
88,88,JulieSohn,No,0.605764913559,lcmd,1,Middle,Index
89,89,JulieSohn,No,0.919365978241,lalt,1,Index,Middle
90,90,JulieSohn,Yes,0.493888998032,lcmd,1,Middle,Middle
91,91,JulieSohn,Yes,0.607372951508,lalt,1,Index,Index
92,92,JulieSohn,No,0.652946853638,lalt,1,Index,Middle
93,93,JulieSohn,Yes,0.654424953461,lalt,1,Index,Index
94,94,JulieSohn,No,0.529923009872,lcmd,1,Middle,Index
95,95,JulieSohn,Yes,0.527910995483,lcmd,1,Middle,Middle
96,96,JulieSohn,Yes,0.526865148544,lalt,1,Index,Index
97,97,JulieSohn,No,0.570100927353,lalt,1,Index,Middle
98,98,JulieSohn,No,0.479163980484,lcmd,1,Middle,Index
99,99,JulieSohn,Yes,0.519750213623,lcmd,1,Middle,Middle
100,100,JulieSohn,No,0.565216970444,lcmd,1,Middle,Index
101,101,JulieSohn,Yes,0.497214174271,lcmd,1,Middle,Middle
102,102,JulieSohn,Yes,0.660210037231,lalt,1,Index,Index
103,103,JulieSohn,No,0.665490102768,lalt,1,Index,Middle
104,104,JulieSohn,Yes,0.56262588501,lalt,1,Index,Index
105,105,JulieSohn,No,0.908156919479,lalt,1,Index,Middle
106,106,JulieSohn,No,0.507386064529,lcmd,1,Middle,Index
107,107,JulieSohn,Yes,0.638390016556,lcmd,1,Middle,Middle
108,108,JulieSohn,No,0.406339931488,lcmd,0,Index,Middle
109,109,JulieSohn,Yes,0.494528007507,lcmd,1,Middle,Middle
110,110,JulieSohn,Yes,0.520618963242,lalt,1,Index,Index
111,111,JulieSohn,No,0.545139789581,lcmd,1,Middle,Index
112,112,JulieSohn,No,0.495508956909,lcmd,1,Middle,Index
113,113,JulieSohn,No,0.649205875397,lalt,1,Index,Middle
114,114,JulieSohn,Yes,0.551373004913,lcmd,1,Middle,Middle
115,115,JulieSohn,Yes,0.532493066788,lalt,1,Index,Index
116,116,JulieSohn,Yes,0.439052057266,lcmd,1,Middle,Middle
117,117,JulieSohn,No,0.567998123169,lalt,1,Index,Middle
118,118,JulieSohn,No,0.546624088287,lcmd,1,Middle,Index
119,119,JulieSohn,Yes,0.647422885895,lalt,1,Index,Index
0,0,KarolineGuldhammer,Yes,-2.3739979744,lalt,1,Index,Index
1,1,KarolineGuldhammer,Yes,0.570557928085,lcmd,1,Middle,Middle
2,2,KarolineGuldhammer,No,0.70927491188,lalt,1,Index,Middle
3,3,KarolineGuldhammer,No,0.64532494545,lcmd,1,Middle,Index
4,4,KarolineGuldhammer,Yes,0.628443002701,lcmd,1,Middle,Middle
5,5,KarolineGuldhammer,No,0.660432052612,lalt,1,Index,Middle
6,6,KarolineGuldhammer,Yes,0.617846870422,lalt,1,Index,Index
7,7,KarolineGuldhammer,No,0.550918054581,lcmd,1,Middle,Index
8,8,KarolineGuldhammer,No,0.561541986465,lcmd,1,Middle,Index
9,9,KarolineGuldhammer,Yes,0.514865875244,lcmd,1,Middle,Middle
10,10,KarolineGuldhammer,Yes,0.556514883041,lalt,1,Index,Index
11,11,KarolineGuldhammer,No,0.688782072067,lalt,1,Index,Middle
12,12,KarolineGuldhammer,Yes,0.50223493576,lalt,1,Index,Index
13,13,KarolineGuldhammer,No,0.649802017212,lcmd,1,Middle,Index
14,14,KarolineGuldhammer,Yes,0.593263149261,lcmd,1,Middle,Middle
15,15,KarolineGuldhammer,No,0.632998132706,lalt,1,Index,Middle
16,16,KarolineGuldhammer,No,0.569732999802,lalt,1,Index,Middle
17,17,KarolineGuldhammer,No,0.580787944794,lcmd,1,Middle,Index
18,18,KarolineGuldhammer,Yes,1.11672506332,lalt,1,Index,Index
19,19,KarolineGuldhammer,Yes,0.598847055435,lcmd,1,Middle,Middle
20,20,KarolineGuldhammer,No,0.936477947235,lcmd,1,Middle,Index
21,21,KarolineGuldhammer,Yes,0.680628967285,lcmd,1,Middle,Middle
22,22,KarolineGuldhammer,No,0.608539104462,lalt,1,Index,Middle
23,23,KarolineGuldhammer,Yes,0.70018696785,lalt,1,Index,Index
24,24,KarolineGuldhammer,No,0.549261856079,lcmd,1,Middle,Index
25,25,KarolineGuldhammer,Yes,0.591933917999,lalt,1,Index,Index
26,26,KarolineGuldhammer,No,0.945328044891,lalt,1,Index,Middle
27,27,KarolineGuldhammer,Yes,0.526070022583,lcmd,1,Middle,Middle
28,28,KarolineGuldhammer,No,0.482932043076,lalt,1,Index,Middle
29,29,KarolineGuldhammer,Yes,0.564272880554,lalt,1,Index,Index
30,30,KarolineGuldhammer,Yes,0.494143009186,lcmd,1,Middle,Middle
31,31,KarolineGuldhammer,No,0.522880887985,lcmd,1,Middle,Index
32,32,KarolineGuldhammer,No,0.49852309227,lalt,1,Index,Middle
33,33,KarolineGuldhammer,Yes,0.795556926727,lcmd,1,Middle,Middle
34,34,KarolineGuldhammer,Yes,0.547288942337,lalt,1,Index,Index
35,35,KarolineGuldhammer,No,0.493577861786,lcmd,1,Middle,Index
36,36,KarolineGuldhammer,Yes,-2.64286489487,lcmd,0,Index,Index
37,37,KarolineGuldhammer,No,-1.77677211761,lalt,1,Index,Middle
38,38,KarolineGuldhammer,No,0.519088125229,lcmd,1,Middle,Index
39,39,KarolineGuldhammer,Yes,0.47752904892,lcmd,1,Middle,Middle
40,40,KarolineGuldhammer,Yes,0.596146059036,lalt,1,Index,Index
41,41,KarolineGuldhammer,Yes,0.556342935562,lcmd,1,Middle,Middle
42,42,KarolineGuldhammer,No,0.574396896362,lcmd,1,Middle,Index
43,43,KarolineGuldhammer,No,0.407820940018,lalt,1,Index,Middle
44,44,KarolineGuldhammer,No,0.54114818573,lalt,1,Index,Middle
45,45,KarolineGuldhammer,Yes,0.730608081818,lcmd,1,Middle,Middle
46,46,KarolineGuldhammer,Yes,0.613810777664,lalt,1,Index,Index
47,47,KarolineGuldhammer,No,0.606426000595,lcmd,1,Middle,Index
48,48,KarolineGuldhammer,Yes,0.564927053452,lcmd,1,Middle,Middle
49,49,KarolineGuldhammer,No,0.684004020691,lcmd,1,Middle,Index
50,50,KarolineGuldhammer,Yes,0.717279815674,lalt,1,Index,Index
51,51,KarolineGuldhammer,No,0.558210849762,lalt,1,Index,Middle
52,52,KarolineGuldhammer,Yes,0.5916908741,lalt,1,Index,Index
53,53,KarolineGuldhammer,Yes,0.792028141022,lcmd,1,Middle,Middle
54,54,KarolineGuldhammer,No,0.539120864868,lcmd,1,Middle,Index
55,55,KarolineGuldhammer,No,0.657944202423,lalt,1,Index,Middle
56,56,KarolineGuldhammer,Yes,0.524482154846,lalt,1,Index,Index
57,57,KarolineGuldhammer,Yes,0.517557001114,lcmd,1,Middle,Middle
58,58,KarolineGuldhammer,No,0.593952035904,lalt,1,Index,Middle
59,59,KarolineGuldhammer,No,0.544659042358,lcmd,1,Middle,Index
60,60,KarolineGuldhammer,No,0.598503065109,lalt,1,Index,Middle
61,61,KarolineGuldhammer,No,0.565318965912,lcmd,1,Middle,Index
62,62,KarolineGuldhammer,Yes,0.558406972885,lcmd,1,Middle,Middle
63,63,KarolineGuldhammer,Yes,0.643627929688,lalt,1,Index,Index
64,64,KarolineGuldhammer,No,0.465817832947,lcmd,1,Middle,Index
65,65,KarolineGuldhammer,Yes,0.573662042618,lalt,1,Index,Index
66,66,KarolineGuldhammer,Yes,0.446703052521,lcmd,1,Middle,Middle
67,67,KarolineGuldhammer,No,0.555950117111,lalt,1,Index,Middle
68,68,KarolineGuldhammer,No,0.420035076141,lcmd,1,Middle,Index
69,69,KarolineGuldhammer,Yes,0.50602388382,lcmd,1,Middle,Middle
70,70,KarolineGuldhammer,Yes,0.564787054062,lalt,1,Index,Index
71,71,KarolineGuldhammer,No,0.57109208107,lalt,1,Index,Middle
72,72,KarolineGuldhammer,No,0.611122083664,lcmd,1,Middle,Index
73,73,KarolineGuldhammer,No,0.460286092758,lalt,1,Index,Middle
74,74,KarolineGuldhammer,Yes,0.51777009964,lalt,1,Index,Index
75,75,KarolineGuldhammer,Yes,0.716540002823,lcmd,1,Middle,Middle
76,76,KarolineGuldhammer,Yes,0.605695152283,lalt,1,Index,Index
77,77,KarolineGuldhammer,Yes,0.580085897446,lcmd,1,Middle,Middle
78,78,KarolineGuldhammer,No,0.523929929733,lalt,1,Index,Middle
79,79,KarolineGuldhammer,No,0.491790866852,lcmd,1,Middle,Index
80,80,KarolineGuldhammer,Yes,0.614304876328,lalt,1,Index,Index
81,81,KarolineGuldhammer,Yes,0.471969795227,lcmd,1,Middle,Middle
82,82,KarolineGuldhammer,No,0.505574941635,lalt,1,Index,Middle
83,83,KarolineGuldhammer,No,0.496041965485,lcmd,1,Middle,Index
84,84,KarolineGuldhammer,Yes,0.542949008942,lcmd,1,Middle,Middle
85,85,KarolineGuldhammer,No,0.61448392868,lcmd,1,Middle,Index
86,86,KarolineGuldhammer,No,0.906016921997,lalt,1,Index,Middle
87,87,KarolineGuldhammer,Yes,0.538804101944,lalt,1,Index,Index
88,88,KarolineGuldhammer,No,0.438314819336,lcmd,1,Middle,Index
89,89,KarolineGuldhammer,No,0.663493967056,lalt,1,Index,Middle
90,90,KarolineGuldhammer,Yes,0.600847053528,lcmd,1,Middle,Middle
91,91,KarolineGuldhammer,Yes,0.559550142288,lalt,1,Index,Index
92,92,KarolineGuldhammer,Yes,0.594423961639,lalt,1,Index,Index
93,93,KarolineGuldhammer,Yes,0.567950963974,lcmd,1,Middle,Middle
94,94,KarolineGuldhammer,No,0.470760059357,lalt,1,Index,Middle
95,95,KarolineGuldhammer,No,0.477156066895,lcmd,1,Middle,Index
96,96,KarolineGuldhammer,Yes,0.508402013779,lalt,1,Index,Index
97,97,KarolineGuldhammer,No,0.442855072021,lcmd,1,Middle,Index
98,98,KarolineGuldhammer,Yes,0.543739080429,lcmd,1,Middle,Middle
99,99,KarolineGuldhammer,No,0.507432031631,lalt,1,Index,Middle
100,100,KarolineGuldhammer,Yes,0.502648019791,lcmd,1,Middle,Middle
101,101,KarolineGuldhammer,No,0.584205961227,lcmd,1,Middle,Index
102,102,KarolineGuldhammer,No,0.696140050888,lalt,1,Index,Middle
103,103,KarolineGuldhammer,Yes,0.505456972122,lalt,1,Index,Index
104,104,KarolineGuldhammer,Yes,0.510264110565,lalt,1,Index,Index
105,105,KarolineGuldhammer,No,0.479219150543,lcmd,1,Middle,Index
106,106,KarolineGuldhammer,Yes,0.614653110504,lcmd,1,Middle,Middle
107,107,KarolineGuldhammer,No,0.58173995018,lalt,1,Index,Middle
108,108,KarolineGuldhammer,No,0.591173839569,lalt,1,Index,Middle
109,109,KarolineGuldhammer,Yes,0.506718015671,lalt,1,Index,Index
110,110,KarolineGuldhammer,No,0.47018289566,lcmd,1,Middle,Index
111,111,KarolineGuldhammer,Yes,0.48040304184,lcmd,1,Middle,Middle
112,112,KarolineGuldhammer,No,0.479299020767,lcmd,1,Middle,Index
113,113,KarolineGuldhammer,Yes,0.741928005218,lalt,1,Index,Index
114,114,KarolineGuldhammer,No,0.424604082108,lalt,1,Index,Middle
115,115,KarolineGuldhammer,Yes,0.512596178055,lcmd,1,Middle,Middle
116,116,KarolineGuldhammer,Yes,0.497499132156,lcmd,1,Middle,Middle
117,117,KarolineGuldhammer,No,0.374114990234,lcmd,1,Middle,Index
118,118,KarolineGuldhammer,Yes,0.470708036423,lcmd,0,Index,Index
119,119,KarolineGuldhammer,No,0.547292041779,lalt,1,Index,Middle
0,0,Ludvig,No,0.365487861633,lcmd,0,Index,Middle
1,1,Ludvig,Yes,0.434582996368,lcmd,1,Middle,Middle
2,2,Ludvig,Yes,0.372471904755,lalt,1,Index,Index
3,3,Ludvig,No,0.584194850922,lcmd,1,Middle,Index
4,4,Ludvig,No,0.508223009109,lcmd,1,Middle,Index
5,5,Ludvig,Yes,0.443172025681,lcmd,1,Middle,Middle
6,6,Ludvig,No,0.531002092361,lalt,1,Index,Middle
7,7,Ludvig,Yes,0.458033895493,lalt,1,Index,Index
8,8,Ludvig,No,0.426149082184,lalt,1,Index,Middle
9,9,Ludvig,Yes,0.475002098084,lcmd,1,Middle,Middle
10,10,Ludvig,Yes,0.44280500412,lalt,1,Index,Index
11,11,Ludvig,No,0.482161045074,lcmd,1,Middle,Index
12,12,Ludvig,Yes,0.552566003799,lcmd,1,Middle,Middle
13,13,Ludvig,Yes,0.547966051102,lalt,1,Index,Index
14,14,Ludvig,No,0.479701185226,lalt,1,Index,Middle
15,15,Ludvig,No,0.408194971085,lcmd,1,Middle,Index
16,16,Ludvig,No,0.427324151993,lcmd,1,Middle,Index
17,17,Ludvig,Yes,0.464422082901,lcmd,1,Middle,Middle
18,18,Ludvig,No,0.480465078354,lcmd,0,Index,Middle
19,19,Ludvig,Yes,0.509681034088,lalt,1,Index,Index
20,20,Ludvig,No,0.506598043442,lalt,1,Index,Middle
21,21,Ludvig,Yes,0.430182933807,lalt,1,Index,Index
22,22,Ludvig,Yes,0.429824972153,lcmd,1,Middle,Middle
23,23,Ludvig,No,0.417749881744,lcmd,1,Middle,Index
24,24,Ludvig,Yes,0.458169078827,lalt,1,Index,Index
25,25,Ludvig,Yes,0.449216079712,lcmd,1,Middle,Middle
26,26,Ludvig,No,0.484517002106,lalt,1,Index,Middle
27,27,Ludvig,No,0.576902914047,lcmd,1,Middle,Index
28,28,Ludvig,Yes,0.438535785675,lalt,1,Index,Index
29,29,Ludvig,No,0.489088010788,lalt,1,Index,Middle
30,30,Ludvig,No,0.383532142639,lcmd,1,Middle,Index
31,31,Ludvig,Yes,0.428726053238,lcmd,1,Middle,Middle
32,32,Ludvig,No,0.475587940216,lcmd,1,Middle,Index
33,33,Ludvig,Yes,0.541228199005,lalt,0,Middle,Middle
34,34,Ludvig,No,0.429655075073,lalt,1,Index,Middle
35,35,Ludvig,Yes,0.51004281044,lalt,1,Index,Index
36,36,Ludvig,Yes,0.464653015137,lcmd,1,Middle,Middle
37,37,Ludvig,No,0.3867831707,lalt,1,Index,Middle
38,38,Ludvig,Yes,0.445916080475,lalt,1,Index,Index
39,39,Ludvig,No,0.618002080917,lcmd,1,Middle,Index
40,40,Ludvig,Yes,0.433974027634,lalt,1,Index,Index
41,41,Ludvig,No,0.465813016892,lalt,1,Index,Middle
42,42,Ludvig,No,0.552625179291,lcmd,1,Middle,Index
43,43,Ludvig,Yes,0.44891409874,lcmd,1,Middle,Middle
44,44,Ludvig,Yes,0.464631986618,lalt,1,Index,Index
45,45,Ludvig,No,0.441476917267,lcmd,1,Middle,Index
46,46,Ludvig,Yes,0.508442020416,lcmd,1,Middle,Middle
47,47,Ludvig,No,0.434491062164,lalt,1,Index,Middle
48,48,Ludvig,No,0.592776060104,lcmd,1,Middle,Index
49,49,Ludvig,No,0.489232063293,lalt,1,Index,Middle
50,50,Ludvig,Yes,0.481965923309,lcmd,1,Middle,Middle
51,51,Ludvig,Yes,0.44266705513,lalt,1,Index,Index
52,52,Ludvig,No,0.456351852417,lcmd,1,Middle,Index
53,53,Ludvig,Yes,0.397848844528,lcmd,1,Middle,Middle
54,54,Ludvig,No,0.385069942474,lalt,1,Index,Middle
55,55,Ludvig,Yes,0.473317098618,lalt,1,Index,Index
56,56,Ludvig,Yes,0.454092979431,lcmd,1,Middle,Middle
57,57,Ludvig,No,0.56421289444,lcmd,1,Middle,Index
58,58,Ludvig,No,0.480848073959,lalt,1,Index,Middle
59,59,Ludvig,Yes,0.431061792374,lalt,1,Index,Index
60,60,Ludvig,No,0.46366314888,lalt,1,Index,Middle
61,61,Ludvig,Yes,0.381416988373,lcmd,1,Middle,Middle
62,62,Ludvig,No,0.377469015122,lcmd,1,Middle,Index
63,63,Ludvig,Yes,0.441830921173,lalt,1,Index,Index
64,64,Ludvig,No,0.408551168442,lalt,1,Index,Middle
65,65,Ludvig,Yes,0.494764995575,lalt,1,Index,Index
66,66,Ludvig,Yes,0.436698055267,lcmd,1,Middle,Middle
67,67,Ludvig,No,0.445983934402,lcmd,1,Middle,Index
68,68,Ludvig,Yes,0.434655094147,lcmd,1,Middle,Middle
69,69,Ludvig,Yes,0.355220174789,lalt,1,Index,Index
70,70,Ludvig,No,0.54317908287,lcmd,1,Middle,Index
71,71,Ludvig,No,0.472310113907,lalt,1,Index,Middle
72,72,Ludvig,Yes,0.357552862167,lcmd,1,Middle,Middle
73,73,Ludvig,Yes,0.368273162842,lalt,1,Index,Index
74,74,Ludvig,No,0.519861125946,lcmd,1,Middle,Index
75,75,Ludvig,No,0.509687137604,lalt,1,Index,Middle
76,76,Ludvig,No,0.541254854202,lalt,1,Index,Middle
77,77,Ludvig,Yes,0.372392082214,lcmd,1,Middle,Middle
78,78,Ludvig,No,0.550550079346,lcmd,1,Middle,Index
79,79,Ludvig,Yes,0.473599052429,lalt,1,Index,Index
80,80,Ludvig,Yes,0.484024810791,lalt,1,Index,Index
81,81,Ludvig,No,0.448047113419,lcmd,1,Middle,Index
82,82,Ludvig,No,0.464342880249,lalt,1,Index,Middle
83,83,Ludvig,Yes,0.459013986587,lcmd,1,Middle,Middle
84,84,Ludvig,Yes,0.417813014984,lcmd,1,Middle,Middle
85,85,Ludvig,No,0.403764057159,lalt,1,Index,Middle
86,86,Ludvig,No,0.484598827362,lalt,0,Middle,Index
87,87,Ludvig,Yes,0.573681926727,lalt,1,Index,Index
88,88,Ludvig,No,0.39402794838,lcmd,1,Middle,Index
89,89,Ludvig,Yes,0.526987981796,lalt,1,Index,Index
90,90,Ludvig,Yes,0.397091007233,lcmd,1,Middle,Middle
91,91,Ludvig,No,0.45038394928,lalt,1,Index,Middle
92,92,Ludvig,Yes,0.417933893204,lalt,1,Index,Index
93,93,Ludvig,No,0.508115100861,lalt,1,Index,Middle
94,94,Ludvig,No,0.428960132599,lcmd,1,Middle,Index
95,95,Ludvig,Yes,0.484432029724,lcmd,1,Middle,Middle
96,96,Ludvig,No,0.426117134094,lalt,1,Index,Middle
97,97,Ludvig,No,0.551834106445,lcmd,1,Middle,Index
98,98,Ludvig,Yes,0.530421924591,lalt,1,Index,Index
99,99,Ludvig,Yes,0.412231969833,lcmd,1,Middle,Middle
100,100,Ludvig,No,0.530357074738,lalt,1,Index,Middle
101,101,Ludvig,No,0.557884931564,lcmd,1,Middle,Index
102,102,Ludvig,Yes,0.407015800476,lcmd,1,Middle,Middle
103,103,Ludvig,Yes,0.505126190186,lalt,1,Index,Index
104,104,Ludvig,No,0.617215013504,lcmd,1,Middle,Index
105,105,Ludvig,Yes,0.400655937195,lcmd,1,Middle,Middle
106,106,Ludvig,No,0.410918951035,lalt,1,Index,Middle
107,107,Ludvig,Yes,0.455668830872,lalt,1,Index,Index
108,108,Ludvig,Yes,0.380753946304,lcmd,1,Middle,Middle
109,109,Ludvig,No,0.447223997116,lalt,1,Index,Middle
110,110,Ludvig,Yes,0.458088874817,lalt,1,Index,Index
111,111,Ludvig,No,0.375504970551,lcmd,1,Middle,Index
112,112,Ludvig,No,0.447155094147,lalt,1,Index,Middle
113,113,Ludvig,Yes,0.393241024017,lalt,1,Index,Index
114,114,Ludvig,No,0.387048101425,lcmd,1,Middle,Index
115,115,Ludvig,Yes,0.390972042084,lcmd,1,Middle,Middle
116,116,Ludvig,No,0.418234920502,lalt,1,Index,Middle
117,117,Ludvig,Yes,0.463966798782,lalt,1,Index,Index
118,118,Ludvig,No,0.312134027481,lcmd,1,Middle,Index
119,119,Ludvig,Yes,0.381689071655,lcmd,1,Middle,Middle
0,0,lvt,No,0.641666730586437,lcmd,1,Index,Middle
1,1,lvt,Yes,0.538238670676947,lalt,1,Middle,Middle
2,2,lvt,Yes,0.449437136854982,lcmd,1,Index,Index
3,3,lvt,No,0.489776165597135,lalt,1,Middle,Index
4,4,lvt,Yes,0.578776404168451,lcmd,1,Index,Index
5,5,lvt,Yes,0.492361785378307,lalt,1,Middle,Middle
6,6,lvt,No,0.443940335232753,lalt,1,Middle,Index
7,7,lvt,No,0.420150009356433,lcmd,1,Index,Middle
8,8,lvt,Yes,0.499723698291916,lcmd,1,Index,Index
9,9,lvt,Yes,0.463699508737761,lalt,1,Middle,Middle
10,10,lvt,No,0.492173344269389,lcmd,1,Index,Middle
11,11,lvt,No,0.408729026932264,lalt,1,Middle,Index
12,12,lvt,No,0.480660810880352,lcmd,1,Index,Middle
13,13,lvt,Yes,0.542623302899301,lalt,1,Middle,Middle
14,14,lvt,Yes,0.468850630801171,lcmd,1,Index,Index
15,15,lvt,No,0.589777397364372,lalt,1,Middle,Index
16,16,lvt,Yes,0.573828502371896,lcmd,1,Index,Index
17,17,lvt,No,0.586426520161325,lalt,1,Middle,Index
18,18,lvt,Yes,0.460948849748831,lalt,1,Middle,Middle
19,19,lvt,No,0.590330813638872,lcmd,1,Index,Middle
20,20,lvt,Yes,0.551224243920302,lalt,1,Middle,Middle
21,21,lvt,No,0.503008477576088,lalt,1,Middle,Index
22,22,lvt,No,0.504730307869607,lcmd,1,Index,Middle
23,23,lvt,Yes,0.528237356990587,lcmd,1,Index,Index
24,24,lvt,No,0.4701943481341,lcmd,1,Index,Middle
25,25,lvt,No,0.432000422570866,lalt,1,Middle,Index
26,26,lvt,Yes,0.559664250910288,lalt,1,Middle,Middle
27,27,lvt,Yes,0.486077966447908,lcmd,1,Index,Index
28,28,lvt,No,0.598975272756064,lcmd,1,Index,Middle
29,29,lvt,No,0.569009101949632,lalt,1,Middle,Index
30,30,lvt,Yes,0.442986225895595,lalt,1,Middle,Middle
31,31,lvt,Yes,0.487904486339545,lcmd,1,Index,Index
32,32,lvt,Yes,0.496432349923992,lcmd,1,Index,Index
33,33,lvt,No,0.456480055209255,lalt,1,Middle,Index
34,34,lvt,Yes,0.438080199901009,lalt,1,Middle,Middle
35,35,lvt,No,0.503417792078096,lcmd,1,Index,Middle
36,36,lvt,No,0.463283215090627,lalt,1,Middle,Index
37,37,lvt,Yes,0.498607833776617,lalt,1,Middle,Middle
38,38,lvt,No,0.527798072807485,lcmd,1,Index,Middle
39,39,lvt,Yes,0.50223049260677,lcmd,1,Index,Index
40,40,lvt,Yes,0.514443418290455,lcmd,1,Index,Index
41,41,lvt,Yes,0.435456399712706,lalt,1,Middle,Middle
42,42,lvt,No,0.384790904261195,lcmd,1,Index,Middle
43,43,lvt,No,0.51335136555133,lalt,1,Middle,Index
44,44,lvt,No,0.415079354215436,lcmd,1,Index,Middle
45,45,lvt,Yes,0.522832928039122,lcmd,1,Index,Index
46,46,lvt,Yes,0.500784548930824,lalt,1,Middle,Middle
47,47,lvt,No,0.443555242940761,lalt,1,Middle,Index
48,48,lvt,No,0.50376182999463,lalt,1,Middle,Index
49,49,lvt,No,0.531312347017206,lcmd,1,Index,Middle
50,50,lvt,Yes,0.475424294825643,lalt,1,Middle,Middle
51,51,lvt,Yes,0.472000340838008,lcmd,1,Index,Index
52,52,lvt,Yes,0.470069952495408,lcmd,1,Index,Index
53,53,lvt,No,0.53894029399379,lcmd,1,Index,Middle
54,54,lvt,No,0.535318045597535,lalt,1,Middle,Index
55,55,lvt,Yes,0.477232340164505,lalt,1,Middle,Middle
56,56,lvt,Yes,0.538437375240051,lalt,1,Middle,Middle
57,57,lvt,No,0.502026861533523,lalt,1,Middle,Index
58,58,lvt,Yes,0.613426906149812,lcmd,1,Index,Index
59,59,lvt,No,0.604095603618759,lcmd,1,Index,Middle
60,60,lvt,Yes,0.443718229420483,lcmd,1,Index,Index
61,61,lvt,No,0.430781921651203,lcmd,1,Index,Middle
62,62,lvt,Yes,0.507970748376124,lalt,1,Middle,Middle
63,63,lvt,No,0.461553173419077,lalt,1,Middle,Index
64,64,lvt,No,0.428611774649482,lalt,1,Middle,Index
65,65,lvt,Yes,0.4367992963642,lalt,1,Middle,Middle
66,66,lvt,No,0.525877538044028,lcmd,1,Index,Middle
67,67,lvt,Yes,0.435914158821106,lcmd,1,Index,Index
68,68,lvt,Yes,0.53353668609634,lcmd,1,Index,Index
69,69,lvt,Yes,0.51590332053604,lalt,1,Middle,Middle
70,70,lvt,No,0.568120679911203,lcmd,1,Index,Middle
71,71,lvt,No,0.61050381772219,lalt,1,Middle,Index
72,72,lvt,Yes,0.494825061969436,lcmd,1,Index,Index
73,73,lvt,Yes,0.55960102705285,lalt,1,Middle,Middle
74,74,lvt,No,0.508353788033105,lalt,1,Middle,Index
75,75,lvt,No,0.488630331773322,lcmd,1,Index,Middle
76,76,lvt,Yes,0.549601765815169,lcmd,1,Index,Index
77,77,lvt,Yes,0.555170002393425,lalt,1,Middle,Middle
78,78,lvt,No,0.506198010407388,lalt,1,Middle,Index
79,79,lvt,No,0.626326264999818,lcmd,1,Index,Middle
80,80,lvt,Yes,0.79742299783976,lcmd,1,Index,Index
81,81,lvt,Yes,0.537213947437692,lalt,1,Middle,Middle
82,82,lvt,No,0.518245896697067,lalt,1,Middle,Index
83,83,lvt,No,0.599272918608051,lcmd,1,Index,Middle
84,84,lvt,No,0.562539305165387,lalt,1,Middle,Index
85,85,lvt,Yes,0.541854350268864,lcmd,1,Index,Index
86,86,lvt,No,0.590471220295854,lcmd,1,Index,Middle
87,87,lvt,Yes,0.641875698603712,lalt,1,Middle,Middle
88,88,lvt,Yes,0.550745958276082,lalt,1,Middle,Middle
89,89,lvt,Yes,0.49386602640152,lcmd,1,Index,Index
90,90,lvt,No,0.533067432232201,lcmd,1,Index,Middle
91,91,lvt,No,0.531930219382048,lalt,1,Middle,Index
92,92,lvt,No,0.497253031842433,lcmd,1,Index,Middle
93,93,lvt,No,0.490108297951508,lalt,1,Middle,Index
94,94,lvt,Yes,0.518127659149457,lalt,1,Middle,Middle
95,95,lvt,Yes,0.466346299368865,lcmd,1,Index,Index
96,96,lvt,No,0.504440872836881,lcmd,1,Index,Middle
97,97,lvt,Yes,0.500474587175972,lcmd,1,Index,Index
98,98,lvt,Yes,0.518220031820249,lalt,1,Middle,Middle
99,99,lvt,No,0.468601839803171,lalt,1,Middle,Index
100,100,lvt,Yes,0.50935921501366,lalt,1,Middle,Middle
101,101,lvt,Yes,0.600661795958899,lcmd,1,Index,Index
102,102,lvt,No,0.529323251731682,lalt,1,Middle,Index
103,103,lvt,No,0.647997351735853,lcmd,1,Index,Middle
104,104,lvt,No,0.45048526143654,lalt,1,Middle,Index
105,105,lvt,No,0.523004946764559,lcmd,1,Index,Middle
106,106,lvt,Yes,0.537516930606216,lcmd,1,Index,Index
107,107,lvt,Yes,0.581742599606514,lalt,1,Middle,Middle
108,108,lvt,No,0.528641334455472,lcmd,1,Index,Middle
109,109,lvt,Yes,0.594986406434316,lalt,1,Middle,Middle
110,110,lvt,No,0.570684950985026,lalt,1,Middle,Index
111,111,lvt,Yes,0.558997934591048,lcmd,1,Index,Index
112,112,lvt,Yes,0.513593587465607,lcmd,1,Index,Index
113,113,lvt,No,0.480765499640256,lalt,1,Middle,Index
114,114,lvt,No,0.586170750018198,lcmd,1,Index,Middle
115,115,lvt,Yes,0.463038119021803,lalt,1,Middle,Middle
116,116,lvt,No,0.521885798033338,lcmd,1,Index,Middle
117,117,lvt,Yes,0.629574095178384,lalt,1,Middle,Middle
118,118,lvt,No,0.532037782482803,lalt,1,Middle,Index
119,119,lvt,Yes,0.482807556167245,lcmd,1,Index,Index
0,0,MSL,No,-6.43478247985,lcmd,1,Index,Index
1,1,MSL,No,0.527907922603,lalt,1,Middle,Middle
2,2,MSL,Yes,0.552463902908,lcmd,1,Index,Middle
3,3,MSL,Yes,0.449469341712,lalt,1,Middle,Index
4,4,MSL,Yes,-0.852249447214,lalt,0,Index,Middle
5,5,MSL,Yes,0.449517394277,lalt,1,Middle,Index
6,6,MSL,No,0.433708100444,lalt,0,Index,Index
7,7,MSL,No,-1.80052482667,lcmd,0,Middle,Middle
8,8,MSL,No,0.5233406896,lalt,1,Middle,Middle
9,9,MSL,No,0.530531592643,lcmd,1,Index,Index
10,10,MSL,Yes,0.455797164707,lcmd,1,Index,Middle
11,11,MSL,Yes,0.396406900437,lalt,1,Middle,Index
12,12,MSL,No,0.520090936628,lcmd,1,Index,Index
13,13,MSL,No,0.608638004348,lalt,1,Middle,Middle
14,14,MSL,Yes,0.496369111526,lalt,1,Middle,Index
15,15,MSL,Yes,0.459027789959,lcmd,1,Index,Middle
16,16,MSL,No,0.473379644835,lalt,1,Middle,Middle
17,17,MSL,No,0.514966293873,lcmd,1,Index,Index
18,18,MSL,Yes,0.527578552596,lcmd,1,Index,Middle
19,19,MSL,Yes,0.57432483412,lalt,1,Middle,Index
20,20,MSL,Yes,0.451823824083,lalt,1,Middle,Index
21,21,MSL,No,0.480625598389,lalt,1,Middle,Middle
22,22,MSL,No,0.424340929397,lcmd,1,Index,Index
23,23,MSL,Yes,0.490456500013,lcmd,1,Index,Middle
24,24,MSL,Yes,0.523021583247,lalt,1,Middle,Index
25,25,MSL,No,0.542802351585,lcmd,1,Index,Index
26,26,MSL,Yes,0.433915706186,lcmd,1,Index,Middle
27,27,MSL,No,0.524271882993,lalt,1,Middle,Middle
28,28,MSL,No,0.503934544657,lalt,1,Middle,Middle
29,29,MSL,Yes,0.452404187099,lalt,0,Index,Middle
30,30,MSL,No,-0.372355200179,lalt,0,Index,Index
31,31,MSL,Yes,-2.20649435481,lcmd,0,Middle,Index
32,32,MSL,No,0.504319898235,lalt,1,Middle,Middle
33,33,MSL,Yes,0.390224168196,lalt,1,Middle,Index
34,34,MSL,No,0.53377434767,lcmd,1,Index,Index
35,35,MSL,Yes,0.514940168207,lcmd,1,Index,Middle
36,36,MSL,Yes,0.413338571555,lcmd,1,Index,Middle
37,37,MSL,Yes,0.468345975383,lalt,1,Middle,Index
38,38,MSL,No,0.540087708242,lcmd,1,Index,Index
39,39,MSL,No,0.527476382579,lalt,1,Middle,Middle
40,40,MSL,Yes,0.494865486123,lcmd,1,Index,Middle
41,41,MSL,No,0.428416906566,lalt,1,Middle,Middle
42,42,MSL,Yes,0.452908039235,lcmd,0,Middle,Index
43,43,MSL,No,-0.91298173098,lalt,0,Index,Index
44,44,MSL,Yes,0.554419968868,lalt,1,Middle,Index
45,45,MSL,No,0.462083000023,lalt,1,Middle,Middle
46,46,MSL,No,0.517876879713,lcmd,1,Index,Index
47,47,MSL,Yes,0.408991633903,lcmd,1,Index,Middle
48,48,MSL,No,0.423261379542,lcmd,1,Index,Index
49,49,MSL,Yes,0.393224327749,lalt,1,Middle,Index
50,50,MSL,No,0.536795034533,lalt,1,Middle,Middle
51,51,MSL,Yes,0.55872127991,lcmd,1,Index,Middle
52,52,MSL,No,0.498078849776,lcmd,1,Index,Index
53,53,MSL,Yes,0.511825708863,lcmd,1,Index,Middle
54,54,MSL,Yes,0.558546797781,lalt,1,Middle,Index
55,55,MSL,No,0.450232117863,lalt,1,Middle,Middle
56,56,MSL,Yes,0.435745809111,lalt,1,Middle,Index
57,57,MSL,Yes,0.443749406989,lcmd,1,Index,Middle
58,58,MSL,No,0.471494491398,lcmd,0,Middle,Middle
59,59,MSL,No,0.521177484429,lcmd,1,Index,Index
60,60,MSL,Yes,0.392207292881,lcmd,1,Index,Middle
61,61,MSL,No,0.449407759784,lalt,1,Middle,Middle
62,62,MSL,No,0.411720739669,lcmd,1,Index,Index
63,63,MSL,Yes,0.511911083809,lalt,1,Middle,Index
64,64,MSL,No,0.51348132966,lalt,1,Middle,Middle
65,65,MSL,No,0.714999417485,lcmd,1,Index,Index
66,66,MSL,Yes,0.527593948077,lalt,1,Middle,Index
67,67,MSL,Yes,0.554968141331,lcmd,1,Index,Middle
68,68,MSL,Yes,0.457567551824,lalt,1,Middle,Index
69,69,MSL,Yes,0.502411884841,lcmd,1,Index,Middle
70,70,MSL,No,0.574241791823,lalt,1,Middle,Middle
71,71,MSL,No,0.565025776417,lcmd,1,Index,Index
72,72,MSL,Yes,0.676248242997,lalt,1,Middle,Index
73,73,MSL,No,0.567913035769,lcmd,1,Index,Index
74,74,MSL,No,0.558666695929,lalt,1,Middle,Middle
75,75,MSL,Yes,0.536642012772,lcmd,1,Index,Middle
76,76,MSL,Yes,0.494824898034,lcmd,1,Index,Middle
77,77,MSL,No,0.593047512971,lalt,1,Middle,Middle
78,78,MSL,No,0.511811246441,lcmd,1,Index,Index
79,79,MSL,Yes,0.533603597778,lalt,1,Middle,Index
80,80,MSL,Yes,0.525994684075,lalt,1,Middle,Index
81,81,MSL,No,0.567973218108,lalt,1,Middle,Middle
82,82,MSL,No,0.583638354246,lcmd,1,Index,Index
83,83,MSL,Yes,0.548470968035,lcmd,1,Index,Middle
84,84,MSL,No,0.535364654301,lcmd,1,Index,Index
85,85,MSL,Yes,0.60865479942,lalt,1,Middle,Index
86,86,MSL,No,0.605366791007,lalt,1,Middle,Middle
87,87,MSL,Yes,0.55548458977,lcmd,1,Index,Middle
88,88,MSL,No,0.40074917279,lcmd,1,Index,Index
89,89,MSL,No,0.508544698397,lalt,1,Middle,Middle
90,90,MSL,Yes,0.495992622013,lalt,1,Middle,Index
91,91,MSL,Yes,0.558363918117,lcmd,1,Index,Middle
92,92,MSL,Yes,-1.05160554285,lcmd,1,Index,Middle
93,93,MSL,No,-2.15038556753,lcmd,0,Middle,Middle
94,94,MSL,Yes,0.493051245209,lalt,1,Middle,Index
95,95,MSL,No,0.433778079907,lcmd,1,Index,Index
96,96,MSL,Yes,-2.3971576015,lcmd,0,Middle,Index
97,97,MSL,No,-2.738105478,lalt,1,Middle,Middle
98,98,MSL,Yes,0.961926246026,lcmd,1,Index,Middle
99,99,MSL,No,0.46216557579,lcmd,1,Index,Index
100,100,MSL,No,0.504145416107,lalt,1,Middle,Middle
101,101,MSL,Yes,0.408732243359,lcmd,1,Index,Middle
102,102,MSL,Yes,0.439993935761,lalt,1,Middle,Index
103,103,MSL,No,0.449382100647,lcmd,1,Index,Index
104,104,MSL,No,0.582242497217,lalt,1,Middle,Middle
105,105,MSL,No,0.60239369018,lcmd,1,Index,Index
106,106,MSL,Yes,0.655493920366,lalt,1,Middle,Index
107,107,MSL,Yes,0.608546564516,lcmd,1,Index,Middle
108,108,MSL,Yes,0.491667984484,lalt,1,Middle,Index
109,109,MSL,No,0.42452520865,lcmd,1,Index,Index
110,110,MSL,Yes,0.480614868205,lcmd,1,Index,Middle
111,111,MSL,No,0.692792321194,lalt,1,Middle,Middle
112,112,MSL,Yes,0.535261551225,lcmd,1,Index,Middle
113,113,MSL,Yes,0.458976471686,lalt,1,Middle,Index
114,114,MSL,No,0.514870188743,lalt,1,Middle,Middle
115,115,MSL,No,0.51499195301,lcmd,1,Index,Index
116,116,MSL,Yes,0.544400122692,lalt,1,Middle,Index
117,117,MSL,No,0.539781198192,lcmd,1,Index,Index
118,118,MSL,Yes,0.527497842949,lcmd,1,Index,Middle
119,119,MSL,No,0.455781769225,lalt,1,Middle,Middle
0,0,MW,No,-2.3803651157883,lcmd,1,Middle,Index
1,1,MW,Yes,-2.82490880740806,lalt,1,Index,Index
2,2,MW,No,-1.99750002467772,lcmd,1,Index,Middle
3,3,MW,Yes,0.434354659856766,lalt,1,Middle,Middle
4,4,MW,Yes,0.588215162791315,lalt,1,Middle,Middle
5,5,MW,No,0.734626794070934,lalt,1,Middle,Index
6,6,MW,Yes,0.47987229728605,lcmd,1,Index,Index
7,7,MW,No,1.05566451668274,lcmd,1,Index,Middle
8,8,MW,Yes,0.575534109899309,lcmd,1,Index,Index
9,9,MW,Yes,0.427115059131751,lalt,1,Middle,Middle
10,10,MW,No,0.581293984164944,lalt,1,Middle,Index
11,11,MW,No,0.553710723563569,lcmd,1,Index,Middle
12,12,MW,No,0.681087433174255,lcmd,1,Index,Middle
13,13,MW,Yes,0.651952448347586,lalt,1,Middle,Middle
14,14,MW,No,0.505842817737715,lcmd,1,Middle,Index
15,15,MW,Yes,0.536170923407184,lcmd,1,Index,Index
16,16,MW,Yes,0.618543268460783,lalt,1,Middle,Middle
17,17,MW,Yes,0.593065802007914,lcmd,1,Index,Index
18,18,MW,No,0.680159980524337,lcmd,1,Index,Middle
19,19,MW,No,0.6709481124999,lalt,1,Middle,Index
20,20,MW,Yes,0.581055616633961,lalt,1,Middle,Middle
21,21,MW,Yes,0.619762560923107,lcmd,1,Index,Index
22,22,MW,No,0.58384418379282,lalt,1,Middle,Index
23,23,MW,No,0.563991268642724,lcmd,1,Index,Middle
24,24,MW,No,0.625150386837788,lcmd,1,Index,Middle
25,25,MW,No,0.512127152050368,lalt,1,Middle,Index
26,26,MW,Yes,0.436409034358803,lalt,1,Middle,Middle
27,27,MW,Yes,0.672086734685593,lcmd,1,Index,Index
28,28,MW,No,0.453436434105981,lalt,1,Middle,Index
29,29,MW,Yes,0.681319129525207,lcmd,1,Index,Index
30,30,MW,No,0.622535630420316,lcmd,1,Index,Middle
31,31,MW,Yes,0.708546609175386,lalt,1,Middle,Middle
32,32,MW,Yes,0.625856765673973,lalt,1,Middle,Middle
33,33,MW,No,0.577403845672961,lalt,1,Middle,Index
34,34,MW,Yes,0.657539127639041,lcmd,1,Index,Index
35,35,MW,No,0.373712971282657,lalt,1,Index,Middle
36,36,MW,Yes,0.635018856136583,lcmd,1,Index,Index
37,37,MW,No,0.660870269720903,lcmd,1,Index,Middle
38,38,MW,No,0.714925879950158,lalt,1,Middle,Index
39,39,MW,Yes,0.677282224374352,lalt,1,Middle,Middle
40,40,MW,Yes,0.619312767276995,lcmd,1,Index,Index
41,41,MW,Yes,0.67928784769029,lalt,1,Middle,Middle
42,42,MW,No,0.541832525562484,lalt,1,Middle,Index
43,43,MW,No,0.687717387638997,lcmd,1,Index,Middle
44,44,MW,No,0.628917980205728,lcmd,1,Index,Middle
45,45,MW,Yes,0.476726717525167,lalt,1,Index,Index
46,46,MW,Yes,0.663011369970633,lalt,1,Middle,Middle
47,47,MW,No,0.67212265667041,lalt,1,Middle,Index
48,48,MW,No,0.624076167470776,lalt,1,Middle,Index
49,49,MW,No,0.65007475838064,lcmd,1,Index,Middle
50,50,MW,Yes,0.77424718146213,lcmd,1,Index,Index
51,51,MW,Yes,0.502714377839595,lalt,1,Middle,Middle
52,52,MW,Yes,0.441484339558514,lcmd,1,Index,Index
53,53,MW,No,0.672922432434291,lcmd,1,Index,Middle
54,54,MW,No,0.677288895554369,lalt,1,Middle,Index
55,55,MW,Yes,0.707814058603248,lalt,1,Middle,Middle
56,56,MW,Yes,0.653360998025164,lcmd,1,Index,Index
57,57,MW,Yes,0.481893623655196,lalt,1,Middle,Middle
58,58,MW,No,0.652552087779611,lcmd,1,Index,Middle
59,59,MW,No,0.606801317131612,lalt,1,Middle,Index
60,60,MW,Yes,0.521310692979,lcmd,1,Index,Index
61,61,MW,No,0.516240057686787,lalt,1,Middle,Index
62,62,MW,Yes,0.735454281163413,lalt,1,Middle,Middle
63,63,MW,No,0.791469329316158,lcmd,1,Index,Middle
64,64,MW,Yes,0.606516250991262,lalt,1,Middle,Middle
65,65,MW,No,0.516146096237946,lcmd,1,Index,Middle
66,66,MW,No,0.551021300861635,lalt,1,Middle,Index
67,67,MW,Yes,0.580155875196226,lcmd,1,Index,Index
68,68,MW,Yes,0.460915685316991,lalt,1,Middle,Middle
69,69,MW,No,0.388576178054791,lcmd,1,Index,Middle
70,70,MW,Yes,0.634243558486901,lcmd,1,Index,Index
71,71,MW,No,0.488160253525734,lalt,1,Middle,Index
72,72,MW,Yes,0.671507622068759,lalt,1,Middle,Middle
73,73,MW,No,0.616837593121431,lalt,1,Middle,Index
74,74,MW,Yes,0.575646237586625,lcmd,1,Index,Index
75,75,MW,No,0.70221044466598,lcmd,1,Index,Middle
76,76,MW,Yes,0.555180853744957,lalt,1,Middle,Middle
77,77,MW,No,0.602214549994073,lalt,1,Middle,Index
78,78,MW,Yes,0.56086103268899,lcmd,1,Index,Index
79,79,MW,No,0.72325381219855,lalt,1,Index,Middle
80,80,MW,Yes,0.494773016823444,lcmd,1,Index,Index
81,81,MW,No,0.644547093624737,lcmd,1,Index,Middle
82,82,MW,No,0.626901580265269,lalt,1,Middle,Index
83,83,MW,Yes,0.721843107161135,lalt,1,Middle,Middle
84,84,MW,No,0.670800730015628,lalt,1,Middle,Index
85,85,MW,No,0.550237946526636,lcmd,1,Index,Middle
86,86,MW,Yes,0.442706197930988,lalt,1,Middle,Middle
87,87,MW,Yes,0.548137386690371,lcmd,1,Index,Index
88,88,MW,Yes,0.949117182637565,lalt,1,Middle,Middle
89,89,MW,No,0.569689562462713,lalt,1,Middle,Index
90,90,MW,No,0.548114807182003,lcmd,1,Index,Middle
91,91,MW,Yes,0.364765899104555,lalt,1,Index,Index
92,92,MW,Yes,0.671472726517834,lcmd,1,Index,Index
93,93,MW,No,0.580106097634427,lcmd,1,Middle,Index
94,94,MW,No,0.501469683379412,lcmd,1,Index,Middle
95,95,MW,Yes,0.484166454698425,lalt,1,Middle,Middle
96,96,MW,No,0.79296871018596,lalt,1,Middle,Index
97,97,MW,Yes,0.745843618223432,lcmd,1,Index,Index
98,98,MW,Yes,0.554487919935468,lalt,1,Middle,Middle
99,99,MW,No,0.604895761981595,lcmd,1,Index,Middle
100,100,MW,No,0.447840517666179,lalt,1,Index,Middle
101,101,MW,No,0.704825457662821,lalt,1,Middle,Index
102,102,MW,Yes,0.406871108233474,lcmd,1,Index,Index
103,103,MW,Yes,0.588526400492981,lalt,1,Middle,Middle
104,104,MW,Yes,0.645860193623207,lalt,1,Middle,Middle
105,105,MW,No,0.643357924139139,lalt,1,Middle,Index
106,106,MW,Yes,0.460344526835229,lcmd,1,Index,Index
107,107,MW,No,0.689299491536815,lcmd,1,Index,Middle
108,108,MW,Yes,0.452513497392658,lalt,1,Middle,Middle
109,109,MW,No,0.397875798144355,lcmd,1,Middle,Index
110,110,MW,Yes,0.736069828807388,lcmd,1,Index,Index
111,111,MW,No,0.655342091806233,lcmd,1,Index,Middle
112,112,MW,No,0.819191145861964,lalt,1,Middle,Index
113,113,MW,Yes,0.591181953961495,lalt,1,Middle,Middle
114,114,MW,Yes,0.392100272129767,lcmd,1,Index,Index
115,115,MW,No,0.955722504900791,lcmd,1,Index,Middle
116,116,MW,Yes,0.654979177820508,lcmd,1,Index,Index
117,117,MW,No,0.464823374163814,lalt,1,Middle,Index
118,118,MW,Yes,0.467582588025834,lcmd,1,Middle,Middle
119,119,MW,No,0.585782581800572,lcmd,1,Index,Middle
0,0,oli,No,-8.69908218383789,lalt,1,Index,Middle
1,1,oli,Yes,0.523061990737915,lalt,1,Middle,Middle
2,2,oli,Yes,0.536107015609744,lcmd,1,Index,Index
3,3,oli,No,0.527023792266846,lalt,1,Middle,Index
4,4,oli,Yes,0.418940019607547,lcmd,1,Index,Index
5,5,oli,Yes,0.505216073989871,lalt,1,Middle,Middle
6,6,oli,No,0.537561798095709,lalt,1,Middle,Index
7,7,oli,No,0.449283885955808,lcmd,1,Index,Middle
8,8,oli,Yes,0.500143814086911,lalt,1,Middle,Middle
9,9,oli,No,0.657030916213984,lcmd,1,Index,Middle
10,10,oli,No,0.535403966903687,lalt,1,Middle,Index
11,11,oli,Yes,0.437942981719971,lcmd,1,Index,Index
12,12,oli,Yes,0.489791965484613,lalt,1,Middle,Middle
13,13,oli,No,0.513684797286999,lalt,1,Middle,Index
14,14,oli,Yes,0.504689121246344,lcmd,1,Index,Index
15,15,oli,No,0.489637947082514,lcmd,1,Index,Middle
16,16,oli,No,0.535160017013538,lalt,1,Middle,Index
17,17,oli,Yes,0.426852178573597,lcmd,1,Index,Index
18,18,oli,Yes,0.561017036437988,lalt,1,Middle,Middle
19,19,oli,No,0.478757953643793,lcmd,1,Index,Middle
20,20,oli,No,0.499690008163441,lalt,1,Middle,Index
21,21,oli,Yes,0.53828306198119,lalt,1,Middle,Middle
22,22,oli,Yes,0.51015110015868,lcmd,1,Index,Index
23,23,oli,No,0.409262990951532,lcmd,1,Index,Middle
24,24,oli,No,0.494147157669062,lalt,1,Middle,Index
25,25,oli,No,0.484358978271473,lcmd,1,Index,Middle
26,26,oli,Yes,0.55091404914856,lalt,1,Middle,Middle
27,27,oli,Yes,0.474020147323614,lcmd,1,Index,Index
28,28,oli,Yes,0.550592041015619,lalt,1,Middle,Middle
29,29,oli,Yes,0.515532970428467,lcmd,1,Index,Index
30,30,oli,No,0.589668846130365,lcmd,1,Index,Middle
31,31,oli,No,0.545768022537231,lalt,1,Middle,Index
32,32,oli,No,0.619451951980579,lalt,1,Index,Middle
33,33,oli,Yes,0.541603946685797,lcmd,1,Index,Index
34,34,oli,Yes,0.491902160644543,lalt,1,Middle,Middle
35,35,oli,No,0.444841003417963,lalt,1,Middle,Index
36,36,oli,Yes,0.516148185729975,lalt,1,Middle,Middle
37,37,oli,Yes,0.566498041152954,lcmd,1,Index,Index
38,38,oli,No,0.585758924484253,lalt,1,Middle,Index
39,39,oli,No,0.538309907913202,lcmd,1,Index,Middle
40,40,oli,Yes,0.480981111526489,lcmd,1,Index,Index
41,41,oli,No,0.483384943008417,lcmd,1,Index,Middle
42,42,oli,Yes,0.538210964202875,lalt,1,Middle,Middle
43,43,oli,No,0.616141843795788,lalt,1,Middle,Index
44,44,oli,Yes,0.560821914672857,lcmd,1,Index,Index
45,45,oli,No,0.518102025985712,lcmd,1,Middle,Index
46,46,oli,No,0.549997186660761,lcmd,1,Index,Middle
47,47,oli,Yes,0.522379922866833,lalt,1,Middle,Middle
48,48,oli,Yes,0.522803068161011,lcmd,1,Index,Index
49,49,oli,No,0.545664978027332,lcmd,1,Index,Middle
50,50,oli,Yes,0.491943073272694,lalt,1,Middle,Middle
51,51,oli,No,0.510276031494129,lalt,1,Middle,Index
52,52,oli,Yes,0.495003128051735,lcmd,1,Index,Index
53,53,oli,No,0.445901870727539,lalt,1,Middle,Index
54,54,oli,No,0.509591007232643,lcmd,1,Index,Middle
55,55,oli,Yes,0.599651050567616,lalt,1,Middle,Middle
56,56,oli,Yes,0.500615978240944,lcmd,1,Index,Index
57,57,oli,No,0.525653076171864,lcmd,1,Index,Middle
58,58,oli,Yes,0.529868888854992,lalt,1,Middle,Middle
59,59,oli,No,0.490402984619152,lalt,1,Middle,Index
60,60,oli,No,0.599068975448631,lalt,1,Middle,Index
61,61,oli,Yes,0.58900194168092,lcmd,1,Index,Index
62,62,oli,No,0.484099864959717,lcmd,1,Index,Middle
63,63,oli,Yes,0.454676866531372,lalt,1,Middle,Middle
64,64,oli,Yes,0.473214054107643,lcmd,1,Index,Index
65,65,oli,No,0.483221054077148,lcmd,1,Index,Middle
66,66,oli,Yes,0.580113887786865,lalt,1,Middle,Middle
67,67,oli,No,0.576184940338123,lalt,1,Middle,Index
68,68,oli,Yes,0.486993885040306,lcmd,1,Index,Index
69,69,oli,No,0.466095066070579,lcmd,1,Middle,Index
70,70,oli,No,0.692571115493763,lcmd,1,Index,Middle
71,71,oli,Yes,0.548849821090698,lalt,1,Middle,Middle
72,72,oli,No,0.673612928390526,lalt,1,Middle,Index
73,73,oli,No,0.570780992507935,lalt,1,Index,Middle
74,74,oli,Yes,0.622204065322876,lcmd,1,Index,Index
75,75,oli,Yes,0.466317939758312,lalt,1,Middle,Middle
76,76,oli,Yes,0.518800878524758,lalt,1,Middle,Middle
77,77,oli,Yes,0.508312988281261,lcmd,1,Index,Index
78,78,oli,No,0.625708866119396,lalt,1,Middle,Index
79,79,oli,No,0.683749055862449,lcmd,1,Index,Middle
80,80,oli,Yes,0.526956129074108,lalt,1,Middle,Middle
81,81,oli,No,0.449600982666027,lcmd,1,Index,Middle
82,82,oli,Yes,0.445098829269398,lcmd,1,Index,Index
83,83,oli,No,0.586396837234474,lalt,1,Middle,Index
84,84,oli,No,0.550523805618298,lcmd,1,Index,Middle
85,85,oli,Yes,0.479250097274758,lalt,1,Middle,Middle
86,86,oli,Yes,0.478762960433983,lcmd,1,Index,Index
87,87,oli,No,0.538063955306995,lalt,1,Middle,Index
88,88,oli,No,0.505269002914417,lalt,1,Middle,Index
89,89,oli,Yes,0.51208100318911,lalt,1,Middle,Middle
90,90,oli,No,0.500795078277577,lcmd,1,Index,Middle
91,91,oli,Yes,0.515003967285168,lcmd,1,Index,Index
92,92,oli,Yes,0.515210866928101,lcmd,1,Index,Index
93,93,oli,Yes,0.477130126953114,lalt,1,Middle,Middle
94,94,oli,No,0.430360078811646,lalt,1,Middle,Index
95,95,oli,No,0.595123958587635,lcmd,1,Index,Middle
96,96,oli,No,0.523563003540062,lalt,1,Middle,Index
97,97,oli,Yes,0.730469942092896,lalt,1,Middle,Middle
98,98,oli,No,0.654649209976185,lcmd,1,Index,Middle
99,99,oli,Yes,0.528667068481468,lcmd,1,Index,Index
100,100,oli,No,0.553605937957741,lcmd,1,Index,Middle
101,101,oli,Yes,0.567374849319435,lalt,1,Middle,Middle
102,102,oli,No,0.775670909881569,lalt,1,Middle,Index
103,103,oli,Yes,0.445002031326283,lcmd,1,Index,Index
104,104,oli,No,0.635647964477528,lalt,1,Middle,Index
105,105,oli,Yes,0.490834999084484,lalt,1,Middle,Middle
106,106,oli,Yes,0.470214796066273,lcmd,1,Index,Index
107,107,oli,No,0.621208906173706,lalt,1,Index,Middle
108,108,oli,Yes,0.510259914398205,lalt,1,Middle,Middle
109,109,oli,No,0.740152025222756,lcmd,1,Index,Middle
110,110,oli,No,0.643991994857799,lalt,1,Middle,Index
111,111,oli,Yes,0.478305959701515,lcmd,1,Index,Index
112,112,oli,Yes,0.565417861938499,lcmd,1,Index,Index
113,113,oli,No,0.498714160919178,lalt,1,Middle,Index
114,114,oli,No,0.489085054397606,lcmd,1,Index,Middle
115,115,oli,Yes,0.488360071182228,lalt,1,Middle,Middle
116,116,oli,No,0.548470973968506,lcmd,1,Index,Middle
117,117,oli,Yes,0.56812310218811,lcmd,1,Index,Index
118,118,oli,No,0.539842128753662,lalt,1,Middle,Index
119,119,oli,Yes,0.483985090255715,lalt,1,Middle,Middle
0,0,RBK,Yes,-31.570816758275,lalt,1,Index,Index
1,1,RBK,No,0.661133582610631,lcmd,1,Middle,Index
2,2,RBK,Yes,0.531550450902444,lcmd,1,Middle,Middle
3,3,RBK,No,0.626146432384843,lalt,1,Index,Middle
4,4,RBK,No,0.569949649553735,lalt,1,Index,Middle
5,5,RBK,Yes,0.545421161595726,lcmd,1,Middle,Middle
6,6,RBK,No,0.546967278420937,lcmd,1,Middle,Index
7,7,RBK,Yes,0.483415151294309,lalt,1,Index,Index
8,8,RBK,No,0.543327376246452,lalt,1,Index,Middle
9,9,RBK,Yes,0.462514659762405,lalt,1,Index,Index
10,10,RBK,Yes,0.475425923988212,lcmd,1,Middle,Middle
11,11,RBK,No,0.423270146362484,lalt,0,Middle,Index
12,12,RBK,Yes,0.57128844037652,lalt,1,Index,Index
13,13,RBK,Yes,0.459533273614966,lcmd,1,Middle,Middle
14,14,RBK,No,0.647000943031173,lalt,1,Index,Middle
15,15,RBK,No,0.594644818920642,lcmd,1,Middle,Index
16,16,RBK,Yes,0.485661659762286,lalt,1,Index,Index
17,17,RBK,Yes,0.513945002201922,lcmd,1,Middle,Middle
18,18,RBK,No,0.634299057256442,lalt,1,Index,Middle
19,19,RBK,No,0.577148164995037,lcmd,1,Middle,Index
20,20,RBK,Yes,0.504558686167002,lcmd,1,Middle,Middle
21,21,RBK,Yes,0.608428493980341,lalt,1,Index,Index
22,22,RBK,No,0.505405643396102,lalt,1,Index,Middle
23,23,RBK,No,0.632645377051062,lcmd,1,Middle,Index
24,24,RBK,Yes,0.569213130138792,lcmd,1,Middle,Middle
25,25,RBK,Yes,0.543854517862201,lalt,1,Index,Index
26,26,RBK,No,0.912394780013699,lcmd,1,Middle,Index
27,27,RBK,No,0.763598090410255,lalt,1,Index,Middle
28,28,RBK,Yes,0.541329248528939,lalt,1,Index,Index
29,29,RBK,Yes,0.617547954712052,lcmd,1,Middle,Middle
30,30,RBK,No,0.701673368085153,lcmd,1,Middle,Index
31,31,RBK,No,0.565246433019638,lalt,1,Index,Middle
32,32,RBK,No,0.601476716995251,lalt,1,Index,Middle
33,33,RBK,No,0.603330743126548,lcmd,1,Middle,Index
34,34,RBK,Yes,0.630228081904363,lalt,1,Index,Index
35,35,RBK,Yes,0.519004572555446,lcmd,1,Middle,Middle
36,36,RBK,Yes,0.535577497631323,lalt,1,Index,Index
37,37,RBK,No,0.622628462966532,lalt,1,Index,Middle
38,38,RBK,Yes,0.537681956961762,lcmd,1,Middle,Middle
39,39,RBK,No,0.773139593098335,lcmd,1,Middle,Index
40,40,RBK,No,0.490922807715833,lcmd,1,Middle,Index
41,41,RBK,Yes,0.541233591455978,lalt,1,Index,Index
42,42,RBK,No,0.705236087832589,lalt,1,Index,Middle
43,43,RBK,Yes,0.504235176090162,lcmd,1,Middle,Middle
44,44,RBK,Yes,0.418910557031609,lcmd,1,Middle,Middle
45,45,RBK,No,0.708731887955196,lalt,1,Index,Middle
46,46,RBK,No,0.676496628299333,lcmd,1,Middle,Index
47,47,RBK,Yes,0.5817741988227,lalt,1,Index,Index
48,48,RBK,No,0.744276969600492,lalt,1,Index,Middle
49,49,RBK,Yes,0.561768286675203,lalt,1,Index,Index
50,50,RBK,No,0.649079127144091,lcmd,1,Middle,Index
51,51,RBK,Yes,0.619708248600375,lcmd,1,Middle,Middle
52,52,RBK,No,0.578388835210376,lcmd,1,Middle,Index
53,53,RBK,Yes,0.5187861618586,lalt,1,Index,Index
54,54,RBK,No,0.540487218275643,lalt,1,Index,Middle
55,55,RBK,Yes,0.56885964954273,lcmd,1,Middle,Middle
56,56,RBK,Yes,0.544512623362266,lalt,1,Index,Index
57,57,RBK,No,0.598046604078263,lcmd,1,Middle,Index
58,58,RBK,No,0.642346581816696,lalt,1,Index,Middle
59,59,RBK,Yes,0.530971991270803,lcmd,1,Middle,Middle
60,60,RBK,No,0.555167936999339,lcmd,1,Middle,Index
61,61,RBK,No,0.549371846858435,lalt,1,Index,Middle
62,62,RBK,Yes,0.590144412871439,lalt,1,Index,Index
63,63,RBK,Yes,0.608022874314315,lcmd,1,Middle,Middle
64,64,RBK,Yes,0.434662390500307,lalt,1,Index,Index
65,65,RBK,Yes,0.531225298810739,lcmd,1,Middle,Middle
66,66,RBK,No,0.547646732255828,lcmd,1,Middle,Index
67,67,RBK,No,1.21371016986666,lalt,1,Index,Middle
68,68,RBK,Yes,0.553014211915411,lalt,1,Index,Index
69,69,RBK,No,0.6653531750664,lcmd,1,Middle,Index
70,70,RBK,Yes,0.64597704112532,lcmd,1,Middle,Middle
71,71,RBK,No,0.814277133904397,lalt,1,Index,Middle
72,72,RBK,Yes,0.573580929823208,lcmd,1,Middle,Middle
73,73,RBK,No,0.668485231976945,lcmd,1,Middle,Index
74,74,RBK,No,0.602582727838296,lalt,1,Index,Middle
75,75,RBK,Yes,0.572441664524376,lalt,1,Index,Index
76,76,RBK,No,0.631785282958276,lcmd,1,Middle,Index
77,77,RBK,Yes,0.503365228977032,lcmd,1,Middle,Middle
78,78,RBK,No,0.54606818240137,lalt,1,Index,Middle
79,79,RBK,Yes,0.729008349217452,lalt,1,Index,Index
80,80,RBK,No,0.546495561115421,lcmd,1,Middle,Index
81,81,RBK,Yes,0.523742274194944,lcmd,1,Middle,Middle
82,82,RBK,No,0.41632740087806,lalt,1,Index,Middle
83,83,RBK,Yes,0.388588853366684,lalt,1,Index,Index
84,84,RBK,Yes,0.472759427502751,lcmd,1,Middle,Middle
85,85,RBK,No,0.685581603087485,lcmd,0,Index,Middle
86,86,RBK,Yes,0.526426014304207,lalt,1,Index,Index
87,87,RBK,No,0.519271016493462,lcmd,1,Middle,Index
88,88,RBK,Yes,0.582686021551467,lcmd,1,Middle,Middle
89,89,RBK,No,0.500237688608422,lcmd,1,Middle,Index
90,90,RBK,No,0.537661019526467,lalt,1,Index,Middle
91,91,RBK,Yes,0.658853409253084,lalt,1,Index,Index
92,92,RBK,No,0.650570231303618,lcmd,1,Middle,Index
93,93,RBK,No,0.583559663500637,lalt,1,Index,Middle
94,94,RBK,Yes,0.653474434092686,lcmd,1,Middle,Middle
95,95,RBK,Yes,0.474156926013507,lalt,1,Index,Index
96,96,RBK,Yes,0.507756840344541,lcmd,1,Middle,Middle
97,97,RBK,No,0.620976425241679,lcmd,1,Middle,Index
98,98,RBK,Yes,0.563954855594829,lalt,1,Index,Index
99,99,RBK,No,0.686142409220338,lalt,1,Index,Middle
100,100,RBK,No,0.516170161683135,lcmd,1,Middle,Index
101,101,RBK,Yes,0.488540819659875,lalt,1,Index,Index
102,102,RBK,Yes,0.510933646187141,lcmd,1,Middle,Middle
103,103,RBK,No,1.05821295734495,lalt,1,Index,Middle
104,104,RBK,Yes,0.6892145255581,lcmd,1,Middle,Middle
105,105,RBK,Yes,0.595383802242623,lalt,1,Index,Index
106,106,RBK,No,0.843107323534809,lalt,1,Index,Middle
107,107,RBK,No,0.615223852824442,lcmd,1,Middle,Index
108,108,RBK,No,0.561848343349993,lcmd,1,Middle,Index
109,109,RBK,No,0.594633733946807,lalt,1,Index,Middle
